,Var1,participant_n,participant,trial_n,ImageLeft,ImageRight,RewardLeft,RewardRight,MaxReward,MinReward,TotalReward,MaxPerformance,MinPerformance,responseKey,RT,response,PCorrectChoice,leftChoice,rightChoice,CumSum,CumPCorrect,SimChoice,SimReward,RandomPerformance,PCorrectChoiceSim,CumSum_sim,CumPCorrect_sim,loadings_left1,loadings_left2,loadings_left3,loadings_left4,loadings_left5,loadings_left6,loadings_left7,loadings_left8,loadings_left9,loadings_left10,loadings_left11,loadings_left12,loadings_left13,loadings_left14,loadings_right1,loadings_right2,loadings_right3,loadings_right4,loadings_right5,loadings_right6,loadings_right7,loadings_right8,loadings_right9,loadings_right10,loadings_right11,loadings_right12,loadings_right13,loadings_right14
0,0,participant_01,5dde6b9423f9f1dbee617eb2,1,stimuli/hard_disk.png,stimuli/mandolin.png,50,43,50,43,50,50,43,left,845,correct,1,1,0,1,1.0,1,43,43,0,0,0.0,1.0784099102020264,0.0062533654272556305,0.0011371757136657834,0.020540229976177216,0.05425974354147911,0.12736943364143372,0.006545357871800661,0.3314242660999298,0.005342092365026474,2.113086223602295,0.01969258487224579,0.0013131528394296765,0.006073371972888708,0.015925314277410507,1.255616545677185,0.00643381429836154,0.01702052913606167,0.3811776638031006,0.015928292647004128,0.35993853211402893,0.04192251339554787,0.1497897356748581,1.011958360671997,0.435090571641922,0.6367188692092896,0.032273415476083755,0.0030615171417593956,0.01998847909271717
1,1,participant_01,5dde6b9423f9f1dbee617eb2,2,stimuli/vent.png,stimuli/koala.png,56,0,56,0,50,106,43,right,1709,incorrect,0,0,1,1,0.5,1,0,43,0,0,0.0,1.1101771593093872,0.014620480127632618,0.002251504687592387,0.003682257840409875,1.2125277519226074,0.006996361538767815,0.09717414528131485,0.18077124655246735,0.004259765613824129,0.15705004334449768,0.07559720426797867,0.014887191355228424,0.02003606967628002,0.011115825735032558,0.032679080963134766,0.02234308049082756,2.2892603874206543,0.07950934767723083,0.039681654423475266,0.007434953469783068,0.3509732484817505,0.02719738706946373,0.009971994906663895,0.0010762978345155716,0.02176983840763569,0.01556834764778614,0.001287922728806734,0.023343000560998917
2,2,participant_01,5dde6b9423f9f1dbee617eb2,3,stimuli/teabag.png,stimuli/trigger.png,15,69,69,15,65,175,58,left,1545,incorrect,0,1,0,1,0.333333333333333,0,15,58,0,0,0.0,0.36600759625434875,1.1677473783493042,0.007997388951480389,0.11126407235860825,0.8377892374992371,0.9286525845527649,0.5454477667808533,0.0020460630767047405,0.0102796396240592,0.023173827677965164,0.05867139250040054,0.016145940870046616,0.017737077549099922,0.5002375245094299,1.6076022386550903,0.003336125984787941,0.006627738010138273,0.11713242530822754,0.012978720478713512,0.022007081657648087,0.0034421163145452738,0.2790836989879608,0.017947213724255562,0.2847103774547577,0.014665710739791393,0.00867553986608982,0.005149057134985924,0.0278138630092144
3,3,participant_01,5dde6b9423f9f1dbee617eb2,4,stimuli/puddle.png,stimuli/stair.png,2,32,32,2,97,207,60,right,1088,correct,1,0,1,2,0.5,0,2,60,0,0,0.0,0.1511739045381546,0.09639022499322891,0.5648505687713623,0.026809707283973694,0.019225705415010452,0.029250171035528183,1.5912692546844482,0.4426163136959076,0.31025928258895874,0.0166047140955925,0.18803071975708008,0.5985534191131592,1.088276743888855,0.05857551097869873,0.7577933669090271,0.027717625722289085,0.0018101282184943557,0.01888350024819374,1.2043993473052979,0.15122996270656586,0.04060892015695572,0.07180739939212799,0.11988477408885956,0.03377972170710564,1.2955381870269775,0.039326250553131104,0.0010678509715944529,0.02823265828192234
4,4,participant_01,5dde6b9423f9f1dbee617eb2,5,stimuli/vial.png,stimuli/dagger.png,37,72,72,37,134,279,97,left,1563,incorrect,0,1,0,2,0.4,1,72,132,1,1,0.2,1.0024350881576538,0.006355373654514551,0.004592239391058683,0.18878871202468872,0.007910543121397495,0.4747609496116638,0.0022113281302154064,0.00884761568158865,0.03846890479326248,0.11031091213226318,0.009530137293040752,0.9625883102416992,0.009692822583019733,0.32081902027130127,1.972786784172058,0.024822687730193138,0.11316444724798203,0.08672570437192917,0.013400371186435223,0.020860113203525543,0.043778304010629654,0.01534403394907713,0.2361709028482437,0.010137460194528103,0.383910208940506,0.029599083587527275,0.027668330818414688,0.03916831314563751
5,5,participant_01,5dde6b9423f9f1dbee617eb2,6,stimuli/traffic_light.png,stimuli/horseshoe.png,47,77,77,47,181,356,144,left,1324,incorrect,0,1,0,2,0.333333333333333,0,47,179,0,1,0.166666666666667,0.9365163445472717,0.012586687691509724,0.00427790405228734,0.018515879288315773,0.045950617641210556,0.3850250244140625,0.08933991193771362,1.1716172695159912,0.2268938273191452,0.8733912706375122,0.041464436799287796,0.001504408777691424,0.017428036779165268,0.01684425212442875,1.7380096912384033,0.012021047994494438,0.36330533027648926,0.35067903995513916,0.04317718371748924,0.08674998581409454,0.2759144604206085,0.40952959656715393,0.6345999836921692,0.009430979378521442,0.28103402256965637,0.015937447547912598,0.05298507958650589,0.023497527465224266
6,6,participant_01,5dde6b9423f9f1dbee617eb2,7,stimuli/volleyball.png,stimuli/landmine.png,25,50,50,25,231,406,169,right,999,correct,1,0,1,3,0.428571428571429,0,25,204,0,1,0.142857142857143,0.5615736842155457,0.12027834355831146,0.013775277882814407,0.27006998658180237,0.0073839155957102776,1.091658592224121,0.07420586049556732,0.6520921587944031,0.8332973122596741,0.005711922887712717,0.1486109048128128,0.05511830374598503,0.03443624824285507,0.011509549804031849,1.1517587900161743,0.0884881392121315,0.11338093876838684,0.0021600828040391207,0.0035739184822887182,0.005348286125808954,0.5223108530044556,0.44572556018829346,0.6224558353424072,0.2998245656490326,0.07478085905313492,0.0010875822044909,0.005628298036754131,0.013678507879376411
7,7,participant_01,5dde6b9423f9f1dbee617eb2,8,stimuli/bowtie.png,stimuli/cement_mixer.png,22,51,51,22,282,457,191,right,1194,correct,1,0,1,4,0.5,1,51,255,1,2,0.25,0.2609461545944214,0.010636250488460064,0.24142274260520935,1.7768031358718872,0.26059964299201965,1.1293820142745972,0.005906896665692329,0.051187776029109955,0.33020612597465515,0.0818309411406517,0.011814409866929054,0.02700965851545334,0.008164631202816963,0.11896610260009766,1.1718449592590332,0.07881669700145721,0.029090899974107742,0.01938656158745289,0.04681040719151497,0.0037983336951583624,0.03386874869465828,1.0203369855880737,0.10166048258543015,0.20411057770252228,0.8599392175674438,0.281083881855011,0.0018180288607254624,0.05041269585490227
8,8,participant_01,5dde6b9423f9f1dbee617eb2,9,stimuli/hot-water_bottle.png,stimuli/polo_shirt.png,11,4,11,4,293,468,195,left,932,correct,1,1,0,5,0.555555555555556,1,4,259,0,2,0.222222222222222,0.26207447052001953,0.3014930188655853,0.08403068035840988,0.21485523879528046,0.5471685528755188,0.09338963776826859,0.21478857100009918,0.8493267893791199,0.6258127689361572,0.09267651289701462,0.056925080716609955,1.0042994022369385,1.333674669265747,0.591892659664154,0.03704916685819626,0.06525111943483353,0.35107558965682983,1.9393506050109863,0.05607070401310921,0.49085789918899536,0.2678335905075073,0.06127728149294853,0.029981521889567375,0.009628246538341045,0.002729491563513875,0.0017674471018835902,0.01604330912232399,0.018720638006925583
9,9,participant_01,5dde6b9423f9f1dbee617eb2,10,stimuli/christmas_card.png,stimuli/copier.png,16,55,55,16,348,523,211,right,1167,correct,1,0,1,6,0.6,0,16,275,0,2,0.2,0.27276018261909485,0.07212608307600021,0.37633782625198364,0.028640801087021828,0.8140657544136047,1.2819191217422485,0.03126344829797745,0.026327693834900856,0.02608191967010498,0.23753508925437927,0.024463169276714325,0.014544574543833733,0.005042186006903648,0.028043610975146294,1.1051456928253174,0.0035549281165003777,0.006135966163128614,0.036645520478487015,0.872962474822998,0.05849013850092888,0.018082085996866226,0.40586933493614197,0.03644315525889397,1.5027714967727661,0.031221026554703712,0.08513350039720535,0.028372474014759064,0.006631095428019762
10,10,participant_01,5dde6b9423f9f1dbee617eb2,11,stimuli/snail.png,stimuli/lamppost.png,12,34,34,12,360,557,223,left,1115,incorrect,0,1,0,6,0.545454545454545,1,34,309,1,3,0.272727272727273,0.09727064520120621,0.5067559480667114,1.578197956085205,0.053854264318943024,0.015982497483491898,0.013325906358659267,0.5927539467811584,0.03163859620690346,0.5256367921829224,0.006951144430786371,0.02871233969926834,0.0522552914917469,0.4094848930835724,0.009353727102279663,1.0250115394592285,0.011061484925448895,0.3519788980484009,0.008142838254570961,0.2976945638656616,0.01992020383477211,1.3597359657287598,0.45393627882003784,0.18274076282978058,0.061827197670936584,0.11503598839044571,0.013019365258514881,0.00753451744094491,0.23576968908309937
11,11,participant_01,5dde6b9423f9f1dbee617eb2,12,stimuli/road_sign.png,stimuli/telephone_pole.png,25,43,43,25,385,600,248,left,1614,incorrect,0,1,0,6,0.5,1,43,352,1,4,0.333333333333333,0.7483011484146118,0.00898826215416193,0.2754381000995636,0.009815631434321404,0.0814460963010788,0.2796541750431061,0.8737401366233826,1.1206191778182983,0.00834339763969183,0.0737638920545578,0.297471821308136,0.008163982070982456,0.006441946607083082,0.021664390340447426,1.1261169910430908,0.0012188790133222938,0.011956638656556606,0.0014108585892245173,0.28877148032188416,0.004525796044617891,0.4083921015262604,0.7627593278884888,0.015615878626704216,0.38478460907936096,0.8174580335617065,0.0018347593722864985,0.0038447813130915165,0.008642759174108505
12,12,participant_01,5dde6b9423f9f1dbee617eb2,13,stimuli/boar.png,stimuli/trumpet.png,1,62,62,1,447,662,249,right,1316,correct,1,0,1,7,0.538461538461538,0,1,353,0,4,0.307692307692308,0.022927872836589813,0.17363379895687103,2.385195255279541,0.0107389185577631,0.010992499068379402,0.020349357277154922,0.1343693882226944,0.015097362920641899,0.026848021894693375,0.010445314459502697,0.016659459099173546,0.010594179853796959,0.014389942400157452,0.011638281866908073,1.5462757349014282,0.03505948558449745,0.03951718285679817,0.17548847198486328,0.016655951738357544,0.4031592905521393,0.02089635282754898,0.16285809874534607,0.5782966613769531,0.011411507613956928,0.12802094221115112,0.009290487505495548,0.018648922443389893,0.005910431034862995
13,13,participant_01,5dde6b9423f9f1dbee617eb2,14,stimuli/tuning_fork.png,stimuli/squirt_gun.png,80,18,80,18,527,742,267,left,1515,correct,1,1,0,8,0.571428571428571,0,80,433,1,5,0.357142857142857,2.010723114013672,0.06579826772212982,0.04798045754432678,0.04367490112781525,0.04470397159457207,0.10618582367897034,0.05535758286714554,0.01616356149315834,0.20242242515087128,0.016624538227915764,0.05662442743778229,0.0051049962639808655,0.003095002379268408,0.03345354273915291,0.7590464353561401,0.019046541303396225,0.5147857069969177,0.9781937599182129,0.01359709445387125,0.32955998182296753,0.1727292686700821,0.5676032900810242,0.006016083527356386,0.01900915987789631,0.01476361695677042,0.5572201609611511,0.6741693615913391,0.09568974375724792
14,14,participant_01,5dde6b9423f9f1dbee617eb2,15,stimuli/screwdriver.png,stimuli/balloon.png,72,7,72,7,599,814,274,left,1098,correct,1,1,0,9,0.6,0,72,505,1,6,0.4,2.0610029697418213,0.02137310802936554,0.004245999734848738,0.03395628184080124,0.020089203491806984,0.12157883495092392,0.05672492831945419,0.10596500337123871,0.013617183081805706,0.050507668405771255,0.014487700536847115,0.03846897557377815,0.010237080976366997,0.02348199672996998,0.13883532583713531,0.4218996465206146,0.03005126491189003,0.1525459587574005,0.08321180939674377,1.8217607736587524,0.46962490677833557,0.4571644365787506,0.4203490912914276,0.0067421263083815575,0.011931383050978184,0.01949503645300865,0.021581657230854034,0.1256251037120819
15,15,participant_01,5dde6b9423f9f1dbee617eb2,16,stimuli/brooch.png,stimuli/throne.png,26,28,28,26,625,842,300,left,1362,incorrect,0,1,0,9,0.5625,0,26,531,0,6,0.375,0.4178681969642639,0.22132693231105804,0.06573311239480972,1.4564337730407715,0.3676680624485016,0.6509532928466797,0.3871169686317444,0.014788884669542313,1.1475118398666382,0.0013693827204406261,0.05827690660953522,0.006925278343260288,0.07641831040382385,0.038697145879268646,0.6825760006904602,0.05657300725579262,0.04960048198699951,0.33754438161849976,0.933933675289154,0.4165911376476288,0.008545177057385445,0.6544320583343506,1.004732608795166,0.014955608174204826,0.28564777970314026,0.009107491001486778,0.06675925850868225,0.09454349428415298
16,16,participant_01,5dde6b9423f9f1dbee617eb2,17,stimuli/pliers.png,stimuli/chainsaw.png,87,59,87,59,712,929,359,left,941,correct,1,1,0,10,0.588235294117647,1,59,590,0,6,0.352941176470588,2.1679532527923584,0.02982695773243904,0.044186782091856,0.005528292153030634,0.0062241945415735245,0.014542278833687305,0.01655385084450245,0.09201119840145111,0.007558148354291916,0.03856540843844414,0.009813878685235977,0.005546855740249157,0.049418430775403976,0.026708999648690224,1.6811559200286865,0.004108525812625885,0.01352099608629942,0.005916629917919636,0.002615727484226227,0.018624618649482727,0.16036541759967804,0.7867940664291382,0.010306321084499359,0.25695085525512695,0.13059067726135254,0.006867568474262953,0.020356997847557068,0.01237669587135315
17,17,participant_01,5dde6b9423f9f1dbee617eb2,18,stimuli/zipper.png,stimuli/tapestry.png,82,7,82,7,794,1011,366,left,979,correct,1,1,0,11,0.611111111111111,0,82,672,1,7,0.388888888888889,1.7622520923614502,0.0026141402777284384,0.027827342972159386,0.8759092092514038,0.4377214014530182,0.24152515828609467,0.014685691334307194,0.04596380144357681,0.1419409215450287,0.04071543365716934,0.007797817699611187,0.004334734287112951,0.04611409828066826,0.009061439894139767,0.1984909325838089,0.03490393981337547,0.01830640248954296,1.3044058084487915,0.7766610383987427,0.9770843386650085,0.24780447781085968,0.001922860275954008,0.7834282517433167,0.01003101747483015,0.020136423408985138,0.022172367200255394,0.03479117900133133,0.01750909350812435
18,18,participant_01,5dde6b9423f9f1dbee617eb2,19,stimuli/sandbox.png,stimuli/wine_cooler.png,19,57,57,19,813,1068,385,left,1223,incorrect,0,1,0,11,0.578947368421053,1,57,729,1,8,0.421052631578947,0.542236864566803,0.060438573360443115,0.24725139141082764,0.05735792592167854,0.9213876724243164,0.5055347681045532,0.46761637926101685,0.6116552352905273,0.08177027106285095,0.06498665362596512,1.077268362045288,0.5123335719108582,0.5427578091621399,0.00625351257622242,1.2667930126190186,1.229501724243164,0.009626748971641064,0.20511414110660553,0.21250982582569122,0.1065477654337883,0.03743256255984306,0.06678536534309387,0.413126677274704,0.18880946934223175,0.04145330935716629,0.16406190395355225,0.03401003032922745,1.3286609649658203
19,19,participant_01,5dde6b9423f9f1dbee617eb2,20,stimuli/skull.png,stimuli/container.png,7,42,42,7,820,1110,392,left,1747,incorrect,0,1,0,11,0.55,0,7,736,0,8,0.4,0.27068591117858887,0.04038911312818527,0.8511071801185608,0.9003810882568359,0.005290604196488857,0.024391159415245056,0.011015824042260647,0.022698186337947845,0.37725502252578735,0.007597204763442278,0.7361366152763367,0.007830007001757622,0.02987547777593136,0.011274188756942749,0.9489845037460327,0.024245575070381165,0.016700252890586853,3.084541094722226e-05,0.8706866502761841,0.08552767336368561,0.04126507416367531,0.8870611190795898,0.00892384722828865,0.13614213466644287,0.3652004599571228,0.0016674816142767668,0.07405334711074829,0.005047086626291275
20,20,participant_01,5dde6b9423f9f1dbee617eb2,21,stimuli/headlamp.png,stimuli/mailbox.png,53,43,53,43,873,1163,435,left,1399,correct,1,1,0,12,0.571428571428571,1,43,779,0,8,0.380952380952381,1.4474565982818604,0.021944884210824966,0.037420157343149185,0.6505964994430542,0.006049291230738163,0.23110540211200714,0.0038686615880578756,0.41687846183776855,0.12686939537525177,0.7778215408325195,0.01591968908905983,0.006630572024732828,0.0648171678185463,0.011361979879438877,0.9428952932357788,0.03392636030912399,0.16019625961780548,0.04312949627637863,0.7485747337341309,0.019554343074560165,0.700553834438324,0.42858436703681946,0.404316782951355,0.3754703402519226,0.11389964818954468,0.012616422958672047,0.000924964842852205,0.018163977190852165
21,21,participant_01,5dde6b9423f9f1dbee617eb2,22,stimuli/prism.png,stimuli/handbrake.png,37,60,60,37,933,1223,472,right,1466,correct,1,0,1,13,0.590909090909091,1,60,839,1,9,0.409090909090909,0.9256364107131958,0.004589371848851442,0.08572781831026077,0.0514213852584362,0.25971344113349915,0.42542335391044617,0.48147034645080566,0.009309312328696251,0.2819783389568329,0.17313221096992493,0.45496493577957153,0.12094425410032272,0.4303564131259918,0.09994939714670181,1.6325488090515137,0.034524235874414444,0.014322514645755291,0.3681439757347107,0.07701615244150162,0.011634196154773235,5.466984657687135e-05,1.024503231048584,0.04319753125309944,0.5472975969314575,0.013387560844421387,0.13299044966697693,0.022741161286830902,0.029599739238619804
22,22,participant_01,5dde6b9423f9f1dbee617eb2,23,stimuli/bathrobe.png,stimuli/centrifuge.png,10,70,70,10,1003,1293,482,right,1048,correct,1,0,1,14,0.608695652173913,1,70,909,1,10,0.434782608695652,0.16316016018390656,0.1853487491607666,0.03415567800402641,1.809174656867981,1.1011738777160645,0.10166104882955551,0.05503542348742485,0.056986477226018906,0.4633244276046753,0.06763199716806412,0.011898434720933437,0.8386233448982239,0.3548033833503723,0.015768490731716156,1.32814621925354,0.09322577714920044,0.0012944850604981184,0.03353026881814003,0.05607200786471367,0.040040090680122375,0.0042843325063586235,0.2952706813812256,0.5088015198707581,1.363938808441162,0.013372420333325863,0.5907887816429138,0.0542801171541214,0.015554742887616158
23,23,participant_01,5dde6b9423f9f1dbee617eb2,24,stimuli/scalpel.png,stimuli/bulletin_board.png,59,15,59,15,1062,1352,497,left,1301,correct,1,1,0,15,0.625,0,59,968,1,11,0.458333333333333,1.666812777519226,0.06647389382123947,0.03850915655493736,0.4449698030948639,0.020807387307286263,0.19388489425182343,0.002360929036512971,0.032616958022117615,0.05445997416973114,0.012116217985749245,0.007249842397868633,0.09438217431306839,0.007141398265957832,0.027964483946561813,0.3301618993282318,0.025264717638492584,0.0019201068207621574,0.01772455871105194,0.7568453550338745,1.2414685487747192,0.01677592657506466,0.02896973118185997,0.006925663445144892,0.897392749786377,0.08642106503248215,0.008490004576742649,0.009839508682489395,0.020650705322623253
24,24,participant_01,5dde6b9423f9f1dbee617eb2,25,stimuli/gear.png,stimuli/hip.png,83,10,83,10,1145,1435,507,left,941,correct,1,1,0,16,0.64,1,10,978,0,11,0.44,1.5761640071868896,0.047180529683828354,0.0069193714298307896,0.01789083704352379,0.018276117742061615,0.07378606498241425,0.0420110858976841,0.5113579034805298,0.7135251760482788,0.4981362223625183,0.01512247696518898,0.012472196482121944,0.0407588966190815,0.018162542954087257,0.019355803728103638,0.30594438314437866,0.39755064249038696,1.883987307548523,0.08769451081752777,0.024413298815488815,0.009020554833114147,0.12378812581300735,0.01747164875268936,0.020538609474897385,0.003554709954187274,0.05435185879468918,0.03626473248004913,0.0008401493541896343
25,25,participant_01,5dde6b9423f9f1dbee617eb2,26,stimuli/rosary.png,stimuli/stilt.png,30,20,30,20,1175,1465,527,left,1250,correct,1,1,0,17,0.653846153846154,0,30,1008,1,12,0.461538461538462,0.852614164352417,0.02336113341152668,0.012083123438060284,0.7271037101745605,0.10558626800775528,0.5595515370368958,0.21161067485809326,0.007312962785363197,0.9450494647026062,0.03176363930106163,0.362286776304245,0.009363385848701,0.008170089684426785,0.006824364420026541,0.6370280385017395,0.005955631844699383,0.6999680995941162,1.1078287363052368,0.0033497028052806854,0.011537083424627781,0.08757664263248444,0.7956497669219971,0.006284615024924278,0.004621956031769514,1.0685185194015503,0.009555974043905735,0.004634613171219826,0.013362107798457146
26,26,participant_01,5dde6b9423f9f1dbee617eb2,27,stimuli/laser_pointer.png,stimuli/doorhandle.png,65,91,91,65,1240,1556,592,left,1540,incorrect,0,1,0,17,0.62962962962963,1,91,1099,1,13,0.481481481481481,1.7052066326141357,0.0005404558032751083,0.016177847981452942,0.04113990068435669,0.010134374722838402,0.41267549991607666,0.03553866967558861,0.0358356311917305,0.012894561514258385,0.4238288402557373,0.023125000298023224,0.023114746436476707,0.06661562621593475,0.018238963559269905,1.9327852725982666,0.06705204397439957,0.009825321845710278,0.006574652623385191,0.4774957001209259,0.007442479487508535,0.002434759633615613,0.0790315493941307,0.13602584600448608,0.02431098371744156,0.005375368520617485,0.5021675825119019,0.010804223828017712,0.019559862092137337
27,27,participant_01,5dde6b9423f9f1dbee617eb2,28,stimuli/earring.png,stimuli/wine_bottle.png,58,42,58,42,1298,1614,634,left,1168,correct,1,1,0,18,0.642857142857143,1,42,1141,0,13,0.464285714285714,1.1955490112304688,0.08847843110561371,0.0037869401276111603,0.874677836894989,0.042283087968826294,0.6827455163002014,0.033738575875759125,0.04406512901186943,0.5377219319343567,0.031106816604733467,0.012149171903729439,0.03852251172065735,0.036877140402793884,0.012427638284862041,1.0675053596496582,0.9551916122436523,0.00838770717382431,0.09574737399816513,0.4073593020439148,0.3902144730091095,0.12521125376224518,0.07811024785041809,0.6202462315559387,0.02101818658411503,0.04415125027298927,0.10176509618759155,0.1513831466436386,1.6374702453613281
28,28,participant_01,5dde6b9423f9f1dbee617eb2,29,stimuli/fast_food.png,stimuli/switch.png,2,62,62,2,1360,1676,636,right,790,correct,1,0,1,19,0.655172413793103,0,2,1143,0,13,0.448275862068966,0.0341239757835865,1.9893574714660645,0.15632355213165283,0.026696322485804558,0.010443435050547123,0.03673060983419418,0.02025568298995495,0.0419221892952919,0.024847278371453285,0.024189062416553497,0.03602001070976257,0.013072228990495205,0.036959368735551834,0.01141356397420168,1.3613468408584595,0.033029984682798386,0.003255626652389765,0.014433261007070541,0.07206328213214874,0.6712683439254761,0.03014703094959259,0.21476073563098907,0.0102457944303751,0.9506167769432068,0.0335247665643692,0.034181538969278336,0.02696463279426098,0.04886437579989433
29,29,participant_01,5dde6b9423f9f1dbee617eb2,30,stimuli/hairdryer.png,stimuli/paperweight.png,52,48,52,48,1408,1728,684,right,1402,incorrect,0,0,1,19,0.633333333333333,1,48,1191,0,13,0.433333333333333,1.360032320022583,0.16206729412078857,0.1724531501531601,0.6635900139808655,0.08194678276777267,0.5774607062339783,0.020762518048286438,0.24201728403568268,0.0062613761983811855,0.40099963545799255,0.014659239910542965,0.9116292595863342,0.02222980372607708,0.012812254019081593,0.887966513633728,0.17696920037269592,0.002519417554140091,0.12547066807746887,0.9379561543464661,0.1369393914937973,0.0033142785541713238,0.0034530414268374443,0.38972291350364685,0.5103470087051392,0.004418025724589825,0.13168099522590637,0.011618348769843578,0.1666928082704544
30,30,participant_01,5dde6b9423f9f1dbee617eb2,31,stimuli/tab.png,stimuli/exerciser.png,84,54,84,54,1462,1812,738,right,1372,incorrect,0,0,1,19,0.612903225806452,1,54,1245,0,13,0.419354838709677,1.6446651220321655,0.47127166390419006,0.008032313548028469,0.010409175418317318,0.046284325420856476,0.39009159803390503,0.07187999039888382,0.027192002162337303,0.3608311712741852,0.3097339868545532,0.0777064636349678,0.02074064314365387,0.006581490859389305,0.02079937234520912,1.3491157293319702,0.07941977679729462,0.127780020236969,1.0221205949783325,0.007218197453767061,0.08038628101348877,0.03513522073626518,0.7719926238059998,0.0181459728628397,0.3188877999782562,0.003636024659499526,0.07144322246313095,0.0425742007791996,0.007424285169690847
31,31,participant_01,5dde6b9423f9f1dbee617eb2,32,stimuli/water_filter.png,stimuli/lab_coat.png,58,26,58,26,1520,1870,764,left,1138,correct,1,1,0,20,0.625,1,26,1271,0,13,0.40625,1.3999524116516113,0.6816228032112122,0.03524409607052803,0.0974346399307251,0.20163840055465698,0.012003127485513687,0.09444602578878403,0.1998784989118576,0.0487540178000927,0.557681679725647,0.018817372620105743,1.1775707006454468,0.6940927505493164,0.6372084617614746,0.5491531491279602,0.09770716726779938,0.0034657020587474108,1.3405297994613647,1.0580123662948608,0.2667761743068695,0.021129706874489784,0.19264385104179382,0.00460047135129571,0.08822431415319443,0.0028009701054543257,0.276262491941452,0.02586999163031578,0.027890091761946678
32,32,participant_01,5dde6b9423f9f1dbee617eb2,33,stimuli/swimsuit.png,stimuli/rust.png,16,38,38,16,1558,1908,780,right,1631,correct,1,0,1,21,0.636363636363636,1,38,1309,1,14,0.424242424242424,0.2347874939441681,0.016254793852567673,0.001508039073087275,1.5158451795578003,0.4062283933162689,0.9297530651092529,0.19046443700790405,0.18924367427825928,0.0008662332547828555,0.021098174154758453,0.004555290099233389,0.009315243922173977,0.7593348622322083,0.008381828665733337,0.8541992902755737,0.08700452744960785,0.0012945068301633,0.005994455888867378,0.291740357875824,0.0016044066287577152,0.09746822714805603,0.38798093795776367,0.22746486961841583,0.04775402694940567,0.6557672619819641,0.027017496526241302,0.009148040786385536,0.009224696084856987
33,33,participant_01,5dde6b9423f9f1dbee617eb2,34,stimuli/turnstile.png,stimuli/camcorder.png,84,56,84,56,1642,1992,836,left,1609,correct,1,1,0,22,0.647058823529412,1,56,1365,0,14,0.411764705882353,1.7187186479568481,0.012038988061249256,0.007770540192723274,0.0011086729355156422,0.4728968143463135,0.009643590077757835,0.008646314963698387,0.6585267186164856,0.03301689401268959,0.45954859256744385,0.009383375756442547,0.0026160955894738436,0.02575392834842205,0.015834840014576912,1.131332516670227,0.002524826442822814,0.1790115386247635,0.5431016683578491,0.00617901561781764,0.02274869568645954,0.0068183783441782,0.3283240795135498,0.120513416826725,1.729383111000061,0.011555218137800694,0.00544474832713604,0.05664966627955437,0.032825201749801636
34,34,participant_01,5dde6b9423f9f1dbee617eb2,35,stimuli/pitchfork.png,stimuli/chain.png,62,81,81,62,1723,2073,898,right,1173,correct,1,0,1,23,0.657142857142857,0,62,1427,0,14,0.4,1.7360020875930786,0.2034132033586502,0.3133295774459839,0.020448913797736168,0.05436426028609276,0.028754688799381256,0.9438977241516113,0.36919939517974854,0.015629060566425323,0.002420825185254216,0.46587637066841125,0.016990959644317627,0.015263311564922333,0.0045348405838012695,1.8066926002502441,0.011972959153354168,0.013097072020173073,0.141353577375412,0.02527948096394539,0.11155974864959717,0.03645171597599983,0.24531398713588715,0.05593516677618027,0.050772447139024734,0.11239159852266312,0.009794303216040134,0.10687462240457535,0.009912325069308281
35,35,participant_01,5dde6b9423f9f1dbee617eb2,36,stimuli/sock.png,stimuli/clasp.png,24,84,84,24,1807,2157,922,right,1121,correct,1,0,1,24,0.666666666666667,0,24,1451,0,14,0.388888888888889,0.5794070363044739,0.1217401847243309,0.205381378531456,1.6663556098937988,0.6229522228240967,0.5168147087097168,0.290477454662323,0.10231197625398636,0.04415694996714592,0.021416757255792618,0.09575904160737991,0.07755523175001144,0.04667910560965538,0.02495643123984337,1.8612349033355713,0.00388233526609838,0.008697348646819592,0.102637879550457,0.04229295253753662,0.49600696563720703,0.005038728937506676,0.19485284388065338,0.154996857047081,0.03033480793237686,0.018029065802693367,0.04703453555703163,0.028137769550085068,0.011953465640544891
36,36,participant_01,5dde6b9423f9f1dbee617eb2,37,stimuli/eraser.png,stimuli/bulletproof_vest.png,41,27,41,27,1848,2198,949,left,1297,correct,1,1,0,25,0.675675675675676,1,27,1478,0,14,0.378378378378378,1.087928295135498,0.019018128514289856,0.0044618151150643826,0.35780763626098633,0.2331727147102356,0.7089852094650269,0.008690583519637585,0.019513096660375595,0.039126068353652954,0.6667443513870239,0.010711521841585636,0.1797902137041092,0.014910794794559479,0.04004921019077301,0.7597349882125854,0.008002190850675106,0.22825752198696136,1.9171158075332642,0.29601237177848816,0.05731269717216492,0.016055947169661522,0.5220816135406494,0.04011830687522888,0.3740723133087158,0.03312792256474495,0.010414290241897106,0.014994875527918339,0.015569706447422504
37,37,participant_01,5dde6b9423f9f1dbee617eb2,38,stimuli/stiletto.png,stimuli/marble.png,34,32,34,32,1882,2232,981,left,1714,correct,1,1,0,26,0.684210526315789,0,34,1512,1,15,0.394736842105263,0.8531033992767334,0.10275328904390335,0.05508008599281311,1.3621375560760498,0.5399634838104248,0.22250893712043762,0.00786089338362217,0.03538915887475014,0.3499222993850708,0.12566719949245453,0.027213474735617638,0.00877617672085762,0.016056520864367485,0.2320699244737625,0.6713284254074097,0.3454369306564331,0.007973715662956238,0.01385654229670763,0.008643001317977905,1.2747583389282227,0.3309474289417267,0.13204587996006012,1.2903825044631958,0.1310042142868042,0.03329040855169296,0.3200589716434479,0.21518391370773315,0.026686422526836395
38,38,participant_01,5dde6b9423f9f1dbee617eb2,39,stimuli/crystal1.png,stimuli/camper.png,46,34,46,34,1916,2278,1015,right,957,incorrect,0,0,1,26,0.666666666666667,0,46,1558,1,16,0.41025641025641,0.5354023575782776,0.38961684703826904,0.06991878896951675,0.07478760182857513,0.27766090631484985,0.10924028605222702,0.6905297040939331,0.02133617177605629,0.5493610501289368,0.024675238877534866,0.5294477343559265,0.3493780493736267,0.5202420949935913,0.39517951011657715,0.6998685598373413,0.022378763183951378,0.017624080181121826,0.07099402695894241,0.5776340365409851,0.021155482158064842,0.02510019950568676,1.9043203592300415,0.0649365708231926,0.6467965841293335,0.022384611889719963,0.09155581146478653,0.07726453244686127,0.016596393659710884
39,39,participant_01,5dde6b9423f9f1dbee617eb2,40,stimuli/snorkel.png,stimuli/lock.png,42,81,81,42,1997,2359,1057,right,1259,correct,1,0,1,27,0.675,0,42,1600,0,16,0.4,1.028854250907898,0.05753202363848686,0.04541076719760895,0.6594492793083191,0.00620073638856411,0.5107964873313904,0.06642536073923111,0.5241803526878357,0.2113262563943863,0.07079415023326874,0.01682344637811184,0.5469216704368591,1.6420085430145264,0.07065155357122421,1.7546169757843018,0.007932416163384914,0.03357982635498047,0.06756988167762756,0.8476811051368713,0.02188348025083542,0.01899857074022293,0.02120283991098404,0.0281017255038023,0.2642742395401001,0.21526236832141876,0.03707718104124069,0.012888536788523197,0.0022191291209310293
40,40,participant_01,5dde6b9423f9f1dbee617eb2,41,stimuli/wheelbarrow.png,stimuli/broom.png,54,33,54,33,2030,2413,1090,right,1181,incorrect,0,0,1,27,0.658536585365854,1,33,1633,0,16,0.390243902439024,1.2067276239395142,0.2627860903739929,0.42171773314476013,0.05817917361855507,0.3285849690437317,0.0006834371015429497,1.2369030714035034,1.078498125076294,0.07362952083349228,0.011326110921800137,0.062706857919693,0.055092547088861465,0.0052757710218429565,0.014314364641904831,1.3573592901229858,0.025656407698988914,0.036784578114748,0.23442362248897552,0.5146310925483704,0.035028256475925446,0.29282084107398987,0.01900918036699295,0.00143082020804286,0.007280450779944658,0.6606179475784302,0.30126842856407166,0.027386272326111794,0.005754443351179361
41,41,participant_01,5dde6b9423f9f1dbee617eb2,42,stimuli/peanut.png,stimuli/wheelchair.png,1,60,60,1,2090,2473,1091,right,1547,correct,1,0,1,28,0.666666666666667,0,1,1634,0,16,0.380952380952381,0.055007487535476685,1.8780663013458252,0.5294652581214905,0.004723699297755957,0.037330180406570435,0.09316658228635788,0.5280978679656982,0.04229346662759781,0.08499828726053238,0.028148198500275612,0.8154869675636292,0.007408072240650654,0.02326418086886406,0.0481867641210556,1.2886579036712646,0.004610809497535229,0.0472957119345665,0.4374818503856659,0.49301472306251526,0.026842832565307617,0.003416100051254034,1.0790678262710571,0.1422966569662094,0.2197771966457367,0.017278127372264862,0.0018575029680505395,0.016013935208320618,0.01652861200273037
42,42,participant_01,5dde6b9423f9f1dbee617eb2,43,stimuli/wrench.png,stimuli/duster.png,97,16,97,16,2187,2570,1107,left,1133,correct,1,1,0,29,0.674418604651163,0,97,1731,1,17,0.395348837209302,2.2801222801208496,0.022822851315140724,0.018271347507834435,0.005967697594314814,0.004866206552833319,0.000687551568262279,0.030449513345956802,0.06841909885406494,0.009384180419147015,0.01012395415455103,0.09351538866758347,0.0015753557672724128,0.02657611109316349,0.006263649091124535,0.8212118744850159,0.2957747280597687,0.28745412826538086,0.2759753167629242,0.6913864016532898,0.6198123693466187,0.35031968355178833,0.019487062469124794,0.038925692439079285,0.0032729175873100758,0.2122400999069214,0.4574551284313202,0.004579667001962662,0.012571403756737709
43,43,participant_01,5dde6b9423f9f1dbee617eb2,44,stimuli/backscratcher.png,stimuli/hook2.png,39,76,76,39,2263,2646,1146,right,1506,correct,1,0,1,30,0.681818181818182,1,76,1807,1,18,0.409090909090909,1.2979873418807983,0.37965407967567444,0.04745810851454735,0.4309333264827728,0.5048072338104248,0.29513463377952576,0.0258619487285614,0.011831875890493393,0.020731398835778236,0.010249716229736805,0.8498324155807495,0.009600927121937275,0.0033889084588736296,0.010762453079223633,1.7879797220230103,0.02058599144220352,0.13172568380832672,0.1251184642314911,0.05316213518381119,0.07743977010250092,0.331571489572525,0.14897316694259644,0.24855297803878784,0.009098950773477554,0.30772364139556885,0.012454514391720295,0.18229065835475922,0.009560761973261833
44,44,participant_01,5dde6b9423f9f1dbee617eb2,45,stimuli/plastic_film.png,stimuli/diskette.png,25,39,39,25,2302,2685,1171,right,970,correct,1,0,1,31,0.688888888888889,0,25,1832,0,18,0.4,0.7407478094100952,0.9528665542602539,0.005667577031999826,0.4536280035972595,0.7412770986557007,0.28859561681747437,0.031000161543488503,0.024333413690328598,0.03536991775035858,0.16940321028232574,0.04262726381421089,0.7752843499183655,0.026448942720890045,0.026748618111014366,0.6536334156990051,0.005395670421421528,0.004194844979792833,0.023111317306756973,0.5683420896530151,0.008242238312959671,0.009514903649687767,0.0034704457502812147,0.002596469596028328,1.6100116968154907,0.01403428241610527,0.009867996908724308,0.0010866554221138358,0.008879364468157291
45,45,participant_01,5dde6b9423f9f1dbee617eb2,46,stimuli/fuse.png,stimuli/fishnet_stockings.png,70,9,70,9,2372,2755,1180,left,916,correct,1,1,0,32,0.695652173913043,1,9,1841,0,18,0.391304347826087,1.430725336074829,0.061083387583494186,0.0030183412600308657,0.08727847784757614,0.06162368133664131,0.894040048122406,0.00500706909224391,0.014486134052276611,0.006769310217350721,0.37848085165023804,0.002527757780626416,0.09064790606498718,0.008320610970258713,0.08683314919471741,0.2745310962200165,0.07334612309932709,0.378706693649292,1.8135390281677246,0.26303598284721375,0.26929011940956116,0.035396408289670944,0.005718887317925692,0.0019907851237803698,0.0015111202374100685,0.022449959069490433,0.02008497342467308,0.024708610028028488,0.012429540045559406
46,46,participant_01,5dde6b9423f9f1dbee617eb2,47,stimuli/incubator.png,stimuli/seismograph.png,26,53,53,26,2425,2808,1206,right,1636,correct,1,0,1,33,0.702127659574468,1,53,1894,1,19,0.404255319148936,0.6110001802444458,0.9888856410980225,0.8018389940261841,0.057574085891246796,0.1605856567621231,0.19868217408657074,0.4095306396484375,0.005045904777944088,0.02191973477602005,0.5976601243019104,0.44968101382255554,0.36306315660476685,0.13093912601470947,0.016733838245272636,1.1080608367919922,0.020111331716179848,0.004049660172313452,0.08237837255001068,0.4371704161167145,0.229543074965477,0.05807098001241684,0.14555098116397858,0.25779661536216736,1.5383917093276978,0.003694047685712576,0.20237348973751068,0.027335643768310547,0.04093089699745178
47,47,participant_01,5dde6b9423f9f1dbee617eb2,48,stimuli/crowbar.png,stimuli/tackle.png,67,46,67,46,2492,2875,1252,left,1973,correct,1,1,0,34,0.708333333333333,1,46,1940,0,19,0.395833333333333,1.8392952680587769,0.026618098840117455,0.17446361482143402,0.004271745681762695,0.001859751297160983,0.00027421917184256017,0.32030898332595825,0.24319826066493988,0.0032854669261723757,0.002072268398478627,0.6294547319412231,0.005163420457392931,0.08995428681373596,0.01142934150993824,0.929153323173523,0.23536372184753418,0.27937427163124084,0.056098535656929016,0.20167191326618195,1.2184422016143799,0.4239257276058197,0.0468943789601326,0.04499233886599541,0.11667696386575699,0.02918737195432186,0.03557056933641434,0.9698200225830078,0.02006703056395054
48,48,participant_01,5dde6b9423f9f1dbee617eb2,49,stimuli/notepad.png,stimuli/dresser.png,32,36,36,32,2524,2911,1284,left,2668,incorrect,0,1,0,34,0.693877551020408,0,32,1972,0,19,0.387755102040816,0.7480051517486572,0.013378860428929329,0.007672798819839954,0.11762657761573792,1.0066500902175903,0.8119277358055115,0.08905266970396042,0.0048703704960644245,0.0017747549572959542,0.5750445127487183,0.23718230426311493,0.036946266889572144,0.004126514308154583,0.03226384148001671,0.8337845206260681,0.0569763258099556,0.007738633546978235,0.16309115290641785,1.7224966287612915,0.09358803182840347,0.016380632296204567,0.07636110484600067,0.22395558655261993,0.20848892629146576,0.643170952796936,0.0297807939350605,0.009736907668411732,0.010244688019156456
49,49,participant_01,5dde6b9423f9f1dbee617eb2,50,stimuli/carousel.png,stimuli/slicer.png,21,85,85,21,2609,2996,1305,right,1331,correct,1,0,1,35,0.7,1,85,2057,1,20,0.4,0.41544029116630554,0.0962548777461052,0.3626052141189575,0.0365477092564106,0.2294567972421646,0.9541971683502197,0.038833215832710266,0.9508637189865112,0.8357035517692566,0.1065216138958931,0.1862277090549469,0.008273705840110779,0.009383236058056355,0.007686501834541559,1.525653600692749,0.8849667906761169,0.015645358711481094,0.0033621848560869694,0.014480486512184143,0.011837366037070751,0.008688532747328281,0.24292543530464172,0.3377700746059418,0.92794269323349,0.006735301576554775,0.0488651841878891,0.010645631700754166,0.00562527310103178
50,50,participant_01,5dde6b9423f9f1dbee617eb2,51,stimuli/butter.png,stimuli/sheet.png,21,9,21,9,2618,3017,1314,right,1842,incorrect,0,0,1,35,0.686274509803922,0,21,2078,1,21,0.411764705882353,0.4820408225059509,2.097538948059082,0.1516021341085434,0.13208149373531342,0.022025758400559425,0.03870948404073715,0.17981277406215668,0.002482733456417918,0.05539443716406822,0.014426480047404766,0.040103692561388016,0.02923055924475193,0.024934139102697372,0.012516266666352749,0.13049717247486115,0.24713748693466187,0.030598463490605354,1.0268474817276,1.4705995321273804,0.21780714392662048,0.1374557763338089,0.013802619650959969,0.11450758576393127,0.009622850455343723,0.04176117107272148,0.13122588396072388,0.040420208126306534,0.06467384845018387
51,51,participant_01,5dde6b9423f9f1dbee617eb2,52,stimuli/toaster_oven.png,stimuli/humvee.png,61,41,61,41,2659,3078,1355,right,2214,incorrect,0,0,1,35,0.673076923076923,1,41,2119,0,21,0.403846153846154,1.2312973737716675,1.0234909057617188,0.009712428785860538,0.0007243679719977081,0.6119348406791687,0.011250452138483524,0.0031952124554663897,0.3172758221626282,0.02471209689974785,1.189575433731079,0.006097057368606329,0.028692245483398438,0.036857541650533676,0.015420515090227127,0.822987973690033,0.0049762059934437275,0.06822740286588669,0.004349686671048403,0.057863663882017136,0.00031607228447683156,0.0037689933087676764,1.7639240026474,0.009919282048940659,0.4061928391456604,0.04604595527052879,0.005590358749032021,0.005735125858336687,0.0012710194569081068
52,52,participant_01,5dde6b9423f9f1dbee617eb2,53,stimuli/punch2.png,stimuli/mixer.png,79,58,79,58,2738,3157,1413,left,3248,correct,1,1,0,36,0.679245283018868,0,79,2198,1,22,0.415094339622642,1.9397168159484863,0.03243554010987282,0.019660424441099167,0.05296074599027634,0.006901411805301905,0.2767980992794037,0.010359274223446846,0.005215448793023825,0.00756271556019783,0.33017298579216003,0.019852232187986374,0.007927032187581062,0.0237744003534317,0.004207275342196226,1.3373647928237915,1.2474621534347534,0.012537341564893723,0.009614504873752594,0.24028705060482025,0.016957784071564674,0.0051628295332193375,0.2607157528400421,0.2599227726459503,0.5916955471038818,0.005723673850297928,0.5053061842918396,0.01296965777873993,0.5416910648345947
53,53,participant_01,5dde6b9423f9f1dbee617eb2,54,stimuli/crystal2.png,stimuli/aluminum_foil.png,12,63,63,12,2801,3220,1425,right,1472,correct,1,0,1,37,0.685185185185185,1,63,2261,1,23,0.425925925925926,0.8554767966270447,0.14769655466079712,0.005849778652191162,0.06240266561508179,0.299196720123291,0.12985093891620636,0.0452127531170845,0.14757955074310303,1.6359001398086548,0.4716763496398926,0.004376844968646765,0.9185234904289246,0.01718788966536522,0.05989836901426315,1.2795844078063965,0.8945676684379578,0.0007839477621018887,0.05037602409720421,0.6743858456611633,0.34551772475242615,0.024192582815885544,0.022064736112952232,0.01725311391055584,0.012248975224792957,0.021013516932725906,0.292657732963562,0.022413216531276703,0.013265020214021206
54,54,participant_01,5dde6b9423f9f1dbee617eb2,55,stimuli/microscope.png,stimuli/painting.png,70,5,70,5,2871,3290,1430,left,733,correct,1,1,0,38,0.690909090909091,1,5,2266,0,23,0.418181818181818,1.5342581272125244,0.00980613473802805,0.0279545895755291,0.08863510191440582,0.001275550457648933,0.027376629412174225,0.003320008283481002,0.14485903084278107,0.11906353384256363,1.1962882280349731,0.003910768311470747,0.3469769358634949,0.13731007277965546,0.04611167684197426,0.37480857968330383,0.2241361290216446,0.40068545937538147,0.3472819924354553,0.38545092940330505,1.1866905689239502,1.2821564674377441,0.15292678773403168,0.4133601784706116,0.06885657459497452,0.2262875884771347,0.03905931115150452,0.010893721133470535,0.06259910762310028
55,55,participant_01,5dde6b9423f9f1dbee617eb2,56,stimuli/eggbeater.png,stimuli/metal_detector.png,76,50,76,50,2947,3366,1480,left,725,correct,1,1,0,39,0.696428571428571,1,50,2316,0,23,0.410714285714286,1.7733590602874756,1.0605711936950684,0.0063965641893446445,0.040163617581129074,0.00618250947445631,0.2920456826686859,0.002846644027158618,0.2306155264377594,0.10069896280765533,0.029737167060375214,0.01252287533134222,0.07418275624513626,0.0024861027486622334,0.015641476958990097,1.663741111755371,0.012879256159067154,0.4767772853374481,0.5009266138076782,0.042317215353250504,0.05407582223415375,0.32448941469192505,0.399516761302948,0.19242849946022034,0.311016708612442,0.07216864824295044,0.03368212282657623,0.33180344104766846,0.004514886066317558
56,56,participant_01,5dde6b9423f9f1dbee617eb2,57,stimuli/soda.png,stimuli/shelf.png,5,68,68,5,3015,3434,1485,right,1307,correct,1,0,1,40,0.701754385964912,0,5,2321,0,23,0.403508771929825,0.031699586659669876,1.544001579284668,0.003252544207498431,0.0869986042380333,0.028438139706850052,0.7934995889663696,0.09974168986082077,0.13598090410232544,0.29495611786842346,0.07606885582208633,0.010081603191792965,0.10591717064380646,0.4632461369037628,1.5962508916854858,1.4078075885772705,0.039093345403671265,0.005994900595396757,0.014060944318771362,1.2628415822982788,0.06369204074144363,0.010839623399078846,0.3303472697734833,0.04422030970454216,0.307528555393219,0.01216601487249136,0.018495669588446617,0.005260640289634466,0.009666836820542812
57,57,participant_01,5dde6b9423f9f1dbee617eb2,58,stimuli/bookmark.png,stimuli/poster.png,19,13,19,13,3034,3453,1498,left,3814,correct,1,1,0,41,0.706896551724138,0,19,2340,1,24,0.413793103448276,0.4735349714756012,0.020323239266872406,0.108289435505867,0.16225895285606384,0.5934550166130066,1.414492130279541,0.0016330373473465443,0.0010865197982639074,0.2525566518306732,0.3362608850002289,0.364429235458374,0.00887305662035942,0.00915685947984457,0.016847537830471992,0.22628137469291687,0.006586515344679356,0.005133993923664093,0.09076682478189468,0.6537310481071472,0.8478270173072815,0.00777324428781867,0.0668155774474144,0.032955609261989594,0.9683063626289368,0.23808139562606812,0.03331543877720833,0.005477122962474823,0.016967862844467163
58,58,participant_01,5dde6b9423f9f1dbee617eb2,59,stimuli/bra.png,stimuli/pulley.png,18,67,67,18,3101,3520,1516,right,974,correct,1,0,1,42,0.711864406779661,1,67,2407,1,25,0.423728813559322,0.11800336092710495,0.06813238561153412,0.02829163521528244,1.608294129371643,0.3044687807559967,0.8337275385856628,0.08457464724779129,0.05157795175909996,0.294734925031662,0.018524635583162308,0.004093477968126535,0.17355535924434662,0.397074431180954,0.022814888507127762,1.496153712272644,0.20045775175094604,0.09089627116918564,0.08948373794555664,0.2696436643600464,0.0808267891407013,0.06153896823525429,0.14683304727077484,0.8294594287872314,0.12574684619903564,1.0750949382781982,0.017831144854426384,0.010981125757098198,0.02979333885014057
59,59,participant_01,5dde6b9423f9f1dbee617eb2,60,stimuli/coal.png,stimuli/motherboard.png,23,52,52,23,3153,3572,1539,right,985,correct,1,0,1,43,0.716666666666667,1,52,2459,1,26,0.433333333333333,0.6894118189811707,0.7136816382408142,0.004465418867766857,0.022335894405841827,0.08051825314760208,0.03693832829594612,0.5603358149528503,0.10778588056564331,0.1490318924188614,0.03288843855261803,0.727030873298645,0.12315085530281067,0.035114020109176636,0.0230905469506979,1.0536413192749023,5.7452445616945624e-05,0.01442004181444645,0.01153541449457407,0.07543467730283737,0.10651049762964249,0.004477405920624733,0.09694589674472809,0.0022468813695013523,1.7434629201889038,0.009018518030643463,0.004916288424283266,0.00862077996134758,0.0024080581497401
60,60,participant_01,5dde6b9423f9f1dbee617eb2,61,stimuli/target.png,stimuli/napkin_ring.png,32,40,40,32,3193,3612,1571,right,2814,correct,1,0,1,44,0.721311475409836,0,32,2491,0,26,0.426229508196721,0.8389697670936584,0.107264444231987,0.21305443346500397,0.1729869246482849,0.002684584818780422,1.0486677885055542,0.3138936460018158,0.7507524490356445,0.917657732963562,0.2846282422542572,0.46856221556663513,0.046186499297618866,0.0663619339466095,0.014392795972526073,0.8693881034851074,0.7313122749328613,0.024883640930056572,0.517052412033081,0.4479513466358185,0.5690171122550964,0.037990305572748184,0.0343916118144989,1.2851513624191284,0.04228723421692848,0.7279247045516968,0.21209710836410522,0.04548133909702301,0.009457319974899292
61,61,participant_01,5dde6b9423f9f1dbee617eb2,62,stimuli/coat.png,stimuli/finger.png,30,12,30,12,3223,3642,1583,left,1207,correct,1,1,0,45,0.725806451612903,0,30,2521,1,27,0.435483870967742,0.4398832619190216,0.06732621788978577,0.0345303975045681,1.7143394947052002,0.8264936208724976,0.03250208497047424,0.009425217285752296,0.007946858182549477,0.10830260813236237,0.1529751420021057,0.019863998517394066,0.014416534453630447,0.01731329783797264,0.02190118469297886,0.35471493005752563,0.23673748970031738,0.5175226926803589,1.4032909870147705,0.002649495378136635,0.05330514535307884,0.010135062970221043,0.005606161896139383,0.011237545870244503,0.059715982526540756,0.07566095888614655,0.01654163748025894,0.016484977677464485,0.009902961552143097
62,62,participant_01,5dde6b9423f9f1dbee617eb2,63,stimuli/tablecloth.png,stimuli/saw.png,24,70,70,24,3293,3712,1607,right,698,correct,1,0,1,46,0.73015873015873,0,24,2545,0,27,0.428571428571429,0.7090699076652527,0.7565105557441711,0.012595122680068016,0.4251687228679657,1.9931614398956299,0.142527237534523,0.002704062731936574,0.003138292348012328,0.10751628130674362,0.15164463222026825,0.0373966209590435,0.18396064639091492,0.013339905068278313,0.08353293687105179,1.974920630455017,0.016884343698620796,0.010168900713324547,0.012584763579070568,0.025278309360146523,0.012984806671738625,0.10271425545215607,0.016400178894400597,0.006374863907694817,0.01610216498374939,0.5293089747428894,0.016827937215566635,0.012038585729897022,0.014867505058646202
63,63,participant_01,5dde6b9423f9f1dbee617eb2,64,stimuli/birdcage.png,stimuli/aircraft_carrier.png,56,45,56,45,3338,3768,1652,right,1520,incorrect,0,0,1,46,0.71875,0,56,2601,1,28,0.4375,1.1131541728973389,0.08759219199419022,0.7857445478439331,0.0011192838428542018,0.5607934594154358,0.10213728249073029,0.06719605624675751,0.22739578783512115,0.6937354207038879,0.010576003231108189,0.14060160517692566,0.03557806462049484,0.061682235449552536,0.025286633521318436,0.9615174531936646,0.0023846998810768127,0.0017545673763379455,0.004919557832181454,0.07193165272474289,0.005215906072407961,0.0031570030841976404,1.3806159496307373,0.01681322418153286,0.47913533449172974,0.007939555682241917,0.03547093644738197,1.389581322669983,0.02077677845954895
64,64,participant_01,5dde6b9423f9f1dbee617eb2,65,stimuli/cocktail.png,stimuli/nutcracker.png,8,83,83,8,3421,3851,1660,right,839,correct,1,0,1,47,0.723076923076923,0,8,2609,0,28,0.430769230769231,0.24341173470020294,1.5064831972122192,0.011384669691324234,0.43817147612571716,0.05739542841911316,0.11466347426176071,0.007082315161824226,0.02402704767882824,0.6072111129760742,0.010752935893833637,0.011475295759737492,0.1915995478630066,0.2550557255744934,1.4900315999984741,2.0498173236846924,0.3361591398715973,0.03264947235584259,0.0327463373541832,0.004323755390942097,0.032095376402139664,0.010936683975160122,0.023637857288122177,0.017890676856040955,0.012556985951960087,0.003518363693729043,0.01582842692732811,0.017795806750655174,0.0016009005485102534
65,65,participant_01,5dde6b9423f9f1dbee617eb2,66,stimuli/sim_card.png,stimuli/diving_board.png,48,35,48,35,3469,3899,1695,left,736,correct,1,1,0,48,0.727272727272727,0,48,2657,1,29,0.439393939393939,0.9436593651771545,0.003141427645459771,0.00079206598456949,0.016461072489619255,0.18888936936855316,0.5018702745437622,0.008308352902531624,0.08976274728775024,0.0357697419822216,1.520994782447815,0.024245090782642365,0.01203678734600544,0.009950813837349415,0.004392784088850021,1.017106294631958,0.013128779828548431,0.009335480630397797,0.011689376085996628,0.6599320769309998,0.46210986375808716,0.17960742115974426,0.027708422392606735,0.007605921942740679,0.025033434852957726,0.2460942417383194,0.0015459692804142833,0.9236851334571838,0.003201364306733012
66,66,participant_01,5dde6b9423f9f1dbee617eb2,67,stimuli/bottle_opener.png,stimuli/chips.png,69,0,69,0,3538,3968,1695,left,915,correct,1,1,0,49,0.73134328358209,1,0,2657,0,29,0.432835820895522,1.9198668003082275,0.26648852229118347,0.0070821805857121944,0.04951268061995506,0.011265740729868412,0.290951669216156,0.013454627245664597,0.024209588766098022,0.0109896594658494,0.025717047974467278,0.012872288934886456,0.026341965422034264,0.00676102377474308,0.05969603359699249,0.005790611729025841,2.2049973011016846,0.006143484730273485,0.026590079069137573,0.048917755484580994,0.20187467336654663,0.006346483714878559,0.015941912308335304,0.014354708604514599,0.006250394508242607,0.060872599482536316,0.010046152397990227,0.00904169399291277,0.013809243217110634
67,67,participant_01,5dde6b9423f9f1dbee617eb2,68,stimuli/guitar.png,stimuli/grinder.png,41,82,82,41,3620,4050,1736,right,1097,correct,1,0,1,50,0.735294117647059,0,41,2698,0,29,0.426470588235294,1.1811110973358154,0.022478792816400528,0.022910548374056816,0.43614739179611206,0.15347491204738617,0.5606150031089783,0.016678154468536377,0.09515125304460526,0.8882864117622375,0.582663357257843,0.591508150100708,0.01429702714085579,0.02428966760635376,0.023207513615489006,1.7102352380752563,0.7889808416366577,0.030324125662446022,0.025712713599205017,0.13221508264541626,0.0029624528251588345,0.04034458100795746,0.2818155884742737,0.7286657094955444,0.1440558135509491,0.011249072849750519,0.11061093211174011,0.059056755155324936,0.12683625519275665
68,68,participant_01,5dde6b9423f9f1dbee617eb2,69,stimuli/snowplow.png,stimuli/kettle.png,35,75,75,35,3655,4125,1771,left,1648,incorrect,0,1,0,50,0.72463768115942,0,35,2733,0,29,0.420289855072464,0.8417161703109741,0.03813822567462921,0.0007225750596262515,0.011547684669494629,0.04486404359340668,0.005663826130330563,0.20706622302532196,1.7180293798446655,0.0037031611427664757,0.05960267037153244,0.031156500801444054,0.06685282289981842,0.03167358413338661,0.05915544554591179,1.5034199953079224,0.9960706830024719,0.014098601415753365,0.06694409251213074,0.20458105206489563,0.008923414163291454,0.028501279652118683,0.2095421552658081,0.34276819229125977,0.3806394338607788,0.0009819164406508207,0.7573552131652832,0.008868582546710968,0.7362152934074402
69,69,participant_01,5dde6b9423f9f1dbee617eb2,70,stimuli/spout.png,stimuli/coil.png,63,87,87,63,3742,4212,1834,right,1190,correct,1,0,1,51,0.728571428571429,1,87,2820,1,30,0.428571428571429,1.403394103050232,0.3739679455757141,0.37327224016189575,0.0006603794172406197,0.136953204870224,0.029907656833529472,0.7072303295135498,0.5186780691146851,0.11507176607847214,0.02049822360277176,0.0565255805850029,1.1044518947601318,0.597486138343811,0.9519098401069641,1.7886699438095093,0.1708609163761139,0.023717785254120827,0.02187858335673809,0.32771357893943787,0.15299086272716522,0.019603701308369637,0.08263570815324783,0.6585261821746826,0.13734033703804016,0.01116576325148344,0.023505259305238724,0.020021755248308182,0.05280732735991478
70,70,participant_01,5dde6b9423f9f1dbee617eb2,71,stimuli/lingerie.png,stimuli/seaweed.png,0,2,2,0,3744,4214,1834,right,898,correct,1,0,1,52,0.732394366197183,1,2,2822,1,31,0.436619718309859,0.00696901511400938,0.07206089049577713,0.30256763100624084,2.097964286804199,0.34311115741729736,0.021662287414073944,0.014389288611710072,0.002506331540644169,0.05718444287776947,0.0026647483464330435,0.025372568517923355,0.014548318460583687,0.0223427452147007,0.023900296539068222,0.0894155353307724,0.6841622591018677,0.5943460464477539,0.08346964418888092,0.04794997721910477,0.5189549922943115,1.2826955318450928,0.022142497822642326,0.1617620438337326,0.020316483452916145,0.08901508897542953,0.002848798641934991,0.6391249299049377,0.022424131631851196
71,71,participant_01,5dde6b9423f9f1dbee617eb2,72,stimuli/brush.png,stimuli/modem.png,22,47,47,22,3791,4261,1856,right,1131,correct,1,0,1,53,0.736111111111111,1,47,2869,1,32,0.444444444444444,0.9663400053977966,0.24114148318767548,0.43806132674217224,1.4955580234527588,0.1431954801082611,0.30922967195510864,0.022851157933473587,0.022390546277165413,0.05363709107041359,0.03791550174355507,0.6624240279197693,0.35999050736427307,0.002522532595321536,0.018620580434799194,0.9856481552124023,0.025029998272657394,0.007979349233210087,0.014670462347567081,0.777569591999054,0.012218302115797997,0.03334873542189598,0.06641654670238495,0.030278556048870087,1.4040601253509521,0.006798272021114826,0.23980022966861725,0.02229493297636509,0.0569038949906826
72,72,participant_01,5dde6b9423f9f1dbee617eb2,73,stimuli/bologna.png,stimuli/grape.png,3,1,3,1,3794,4264,1857,left,2822,correct,1,1,0,54,0.73972602739726,0,3,2872,1,33,0.452054794520548,0.010341597720980644,2.0045790672302246,0.3595058023929596,0.10505721718072891,0.04655953869223595,0.06812641024589539,0.02483915351331234,0.020552340894937515,0.16529081761837006,0.0119714867323637,0.030554814264178276,0.03141379728913307,0.019060572609305382,0.013164173811674118,0.01401439867913723,1.6129040718078613,0.4076214134693146,0.002271239412948489,0.026244204491376877,0.10682231932878494,1.245403528213501,0.012437679804861546,0.043020300567150116,0.012689794413745403,0.020232750102877617,0.004489982035011053,0.022595034912228584,0.31520068645477295
73,73,participant_01,5dde6b9423f9f1dbee617eb2,74,stimuli/tugboat.png,stimuli/boulder.png,28,11,28,11,3822,4292,1868,left,1025,correct,1,1,0,55,0.743243243243243,1,11,2883,0,33,0.445945945945946,0.5481927990913391,0.0065899561159312725,0.025638055056333542,0.003212562296539545,0.012427402660250664,0.015809498727321625,0.042134348303079605,1.7668867111206055,0.02114575356245041,0.2427436113357544,0.03681432828307152,0.008789475075900555,1.6394896507263184,0.004797826055437326,0.33259180188179016,0.14476265013217926,0.45787736773490906,0.015841858461499214,0.03872731700539589,0.03857909515500069,0.9474934935569763,0.5057663321495056,0.7068979740142822,0.024891352280974388,1.0652670860290527,0.010909311473369598,0.1525106579065323,0.0051943641155958176
74,74,participant_01,5dde6b9423f9f1dbee617eb2,75,stimuli/dumbbell.png,stimuli/staple_gun.png,81,76,81,76,3898,4373,1944,right,1051,incorrect,0,0,1,55,0.733333333333333,1,76,2959,0,33,0.44,1.6345688104629517,0.10827668756246567,0.014260136522352695,0.4898473918437958,0.005925770383328199,0.006745273247361183,0.021414777263998985,0.6152306795120239,0.7136898636817932,0.1624012142419815,0.01950511895120144,0.057855475693941116,0.05468422919511795,0.00012114716810174286,2.0099592208862305,0.004346632398664951,0.04367433488368988,0.06987909227609634,0.2923431098461151,0.12051012367010117,0.030816376209259033,0.04400131478905678,0.009729713201522827,0.17727242410182953,0.1277976930141449,0.003525621723383665,0.014788366854190826,0.0014495548093691468
75,75,participant_01,5dde6b9423f9f1dbee617eb2,76,stimuli/tack.png,stimuli/kite.png,80,14,80,14,3978,4453,1958,left,1101,correct,1,1,0,56,0.736842105263158,0,80,3039,1,34,0.447368421052632,1.802181601524353,0.017514167353510857,0.003355560591444373,0.014476718381047249,0.1839808076620102,0.47868871688842773,0.21418410539627075,0.0503104031085968,0.5364356637001038,0.010476312600076199,0.015331409871578217,0.011676538735628128,0.03375670686364174,0.0075322650372982025,0.5115437507629395,0.013560576364398003,0.1474326252937317,0.6325011849403381,0.029101138934493065,1.4489237070083618,0.5474951863288879,0.9629653692245483,0.0008258686284534633,0.05282020568847656,0.00876553263515234,0.010978220961987972,0.5604887008666992,0.025394976139068604
76,76,participant_01,5dde6b9423f9f1dbee617eb2,77,stimuli/wire_cutters.png,stimuli/paperclip.png,82,74,82,74,4060,4535,2032,left,1404,correct,1,1,0,57,0.74025974025974,0,82,3121,1,35,0.454545454545455,2.070537805557251,0.006414759438484907,0.014182266779243946,0.039163146167993546,0.013889256864786148,0.035790856927633286,0.15467745065689087,0.11777548491954803,0.029732154682278633,0.009409717284142971,0.02269277162849903,0.008074714802205563,0.01040269248187542,0.043528757989406586,1.660181999206543,0.023558149114251137,0.005909167230129242,0.00882765743881464,0.11193892359733582,0.362883597612381,0.013914990238845348,0.003276927163824439,0.011328154243528843,0.009547650814056396,0.03258301317691803,0.018824070692062378,0.007111221551895142,0.007485951762646437
77,77,participant_01,5dde6b9423f9f1dbee617eb2,78,stimuli/petri_dish.png,stimuli/airbag.png,40,34,40,34,4094,4575,2066,right,2191,incorrect,0,0,1,57,0.730769230769231,1,34,3155,0,35,0.448717948717949,0.8104400038719177,0.2739253044128418,0.0004128024447709322,0.017346760258078575,0.1640060991048813,0.12568821012973785,0.016615409404039383,0.01830473728477955,0.8540996313095093,0.5609156489372253,0.08214673399925232,0.7971068024635315,0.022003652527928352,0.07427001744508743,0.7547037601470947,0.004614046774804592,0.0357363186776638,0.5380324721336365,0.5117629170417786,0.01323876716196537,0.01873062178492546,1.3846033811569214,0.08379628509283066,0.3094237744808197,0.012509442865848541,0.5408418774604797,0.008878994733095169,0.017957575619220734
78,78,participant_01,5dde6b9423f9f1dbee617eb2,79,stimuli/map.png,stimuli/gravel.png,9,28,28,9,4122,4603,2075,right,771,correct,1,0,1,58,0.734177215189873,0,9,3164,0,35,0.443037974683544,0.12734606862068176,0.012188955210149288,0.4334215223789215,0.49025633931159973,0.6104187369346619,0.6665955781936646,0.03826883062720299,0.685699462890625,0.18409183621406555,0.6804744601249695,0.16601620614528656,0.011602738872170448,0.2975408732891083,0.0055988263338804245,0.5561150908470154,0.012170808389782906,0.1055593490600586,0.00104583241045475,0.49642860889434814,0.015199865214526653,1.0213239192962646,0.4278373420238495,0.038177214562892914,0.0027776823844760656,0.4035196602344513,0.01810343563556671,0.008788886480033398,0.004021957982331514
79,79,participant_01,5dde6b9423f9f1dbee617eb2,80,stimuli/brick.png,stimuli/gauze.png,30,24,30,24,4146,4633,2099,right,1715,incorrect,0,0,1,58,0.725,1,24,3188,0,35,0.4375,0.7725473046302795,0.21738743782043457,0.004974693991243839,0.0036082135047763586,0.6466161012649536,0.5022192001342773,0.4544844627380371,0.19368477165699005,0.01229897141456604,0.003516484284773469,1.2212129831314087,0.021989496424794197,0.044378116726875305,0.014754332602024078,0.7203091979026794,0.09397217631340027,0.025930285453796387,0.7191541790962219,0.8203454613685608,0.5611426830291748,0.1630537509918213,0.02817520499229431,0.017417827621102333,0.009204262867569923,0.04781218245625496,0.7824684381484985,0.06075342372059822,0.04351041838526726
80,80,participant_01,5dde6b9423f9f1dbee617eb2,81,stimuli/ratchet.png,stimuli/videogame.png,91,26,91,26,4237,4724,2125,left,1951,correct,1,1,0,59,0.728395061728395,0,91,3279,1,36,0.444444444444444,2.2473692893981934,0.0006928823422640562,0.0021041922736912966,0.012366753071546555,0.02511696331202984,0.051235686987638474,0.001631118357181549,0.15079578757286072,0.004310538060963154,0.03798114135861397,0.021494412794709206,0.04392896965146065,0.009555689059197903,0.00696546770632267,0.6009788513183594,0.017786651849746704,0.00038201516144908965,0.0909896120429039,0.07394596934318542,0.8883270025253296,0.0020432271994650364,0.6268401145935059,0.09186072647571564,1.6813898086547852,0.014980089850723743,0.026227425783872604,0.029914777725934982,0.011407139711081982
81,81,participant_01,5dde6b9423f9f1dbee617eb2,82,stimuli/silverware.png,stimuli/paintbrush.png,69,21,69,21,4306,4793,2146,left,1414,correct,1,1,0,60,0.731707317073171,1,21,3300,0,36,0.439024390243902,1.6121612787246704,1.1264735460281372,0.012861286289989948,0.040806420147418976,0.15789441764354706,0.37361764907836914,0.05450388789176941,0.00281260977499187,0.12196089327335358,0.0017040545353665948,0.012367081828415394,0.034699853509664536,0.02806420996785164,0.1000002771615982,1.1352746486663818,0.2785601019859314,0.04274942725896835,0.092013880610466,0.21004967391490936,1.7637866735458374,0.1834106594324112,0.0019867150112986565,0.09293913841247559,0.29669448733329773,0.6795752644538879,0.04257027432322502,0.040581319481134415,0.10125535726547241
82,82,participant_01,5dde6b9423f9f1dbee617eb2,83,stimuli/bracket.png,stimuli/food_processor.png,76,62,76,62,4368,4869,2208,right,1901,incorrect,0,0,1,60,0.72289156626506,1,62,3362,0,36,0.433734939759036,1.6436480283737183,0.016970103606581688,0.009748774580657482,0.004462669603526592,1.1113743782043457,0.02037852443754673,0.003834310919046402,0.03486986458301544,0.0504804402589798,0.019951697438955307,0.17159202694892883,0.006735270377248526,0.0131654292345047,0.009367587976157665,1.314178228378296,1.1789470911026,0.012400093488395214,0.02456667646765709,0.14115490019321442,0.018694570288062096,0.017936691641807556,0.11436168104410172,0.20841173827648163,0.815595269203186,0.0023816090542823076,0.8105889558792114,0.011979451403021812,0.512815535068512
83,83,participant_01,5dde6b9423f9f1dbee617eb2,84,stimuli/goalpost.png,stimuli/tool.png,27,86,86,27,4454,4955,2235,right,1373,correct,1,0,1,61,0.726190476190476,0,27,3389,0,36,0.428571428571429,0.738431453704834,0.00962884072214365,0.05518622323870659,0.04529079049825668,0.18743667006492615,0.5639805197715759,0.5559705495834351,1.012771725654602,0.027725156396627426,0.023427775129675865,0.3067420721054077,0.007831916213035583,0.03928808867931366,0.017369957640767097,2.255553722381592,0.004157021176069975,0.016882631927728653,0.028688602149486542,0.03207670897245407,0.41553881764411926,0.010494579561054707,0.04474395513534546,0.010897877626121044,0.04348132759332657,0.4888150095939636,0.005694165360182524,0.011302287690341473,0.008392974734306335
84,84,participant_01,5dde6b9423f9f1dbee617eb2,85,stimuli/guillotine.png,stimuli/coat_rack.png,56,61,61,56,4510,5016,2291,left,1225,incorrect,0,1,0,61,0.717647058823529,1,61,3450,1,37,0.435294117647059,1.5204877853393555,0.012137818150222301,0.01963411271572113,0.047928012907505035,0.27725398540496826,0.009718839079141617,0.009193707257509232,0.02269858680665493,0.07456476986408234,0.036656271666288376,0.6088845729827881,0.03250865638256073,0.026836996898055077,0.009929276071488857,1.3620672225952148,0.01584808900952339,0.01680879294872284,0.39227592945098877,1.0892151594161987,0.038004640489816666,0.014348075725138187,0.013813620433211327,0.752336859703064,0.02360912784934044,0.045476142317056656,0.015161569230258465,0.01013958640396595,0.07183165103197098
85,85,participant_01,5dde6b9423f9f1dbee617eb2,86,stimuli/jeans.png,stimuli/tape_recorder.png,18,59,59,18,4569,5075,2309,right,573,correct,1,0,1,62,0.720930232558139,0,18,3468,0,37,0.430232558139535,0.29535967111587524,0.014602321200072765,0.06775331497192383,2.1357228755950928,0.574852705001831,0.027206528931856155,0.03699181228876114,0.2076513022184372,0.01471704337745905,0.05790909007191658,0.011000271886587143,0.023803982883691788,0.021667273715138435,0.020087668672204018,1.157039999961853,0.002357877092435956,0.0036177802830934525,0.10640229284763336,0.36509817838668823,0.22064875066280365,0.014903846196830273,0.03298309072852135,0.2566344738006592,1.8260987997055054,0.012987609952688217,0.0010361658642068505,0.02072845958173275,0.004087187349796295
86,86,participant_01,5dde6b9423f9f1dbee617eb2,87,stimuli/gyroscope.png,stimuli/whistle.png,76,66,76,66,4645,5151,2375,left,1947,correct,1,1,0,63,0.724137931034483,1,66,3534,0,37,0.425287356321839,1.5457020998001099,0.04404279962182045,0.0024009235203266144,0.0030102257151156664,0.04457485303282738,0.6176896691322327,0.017178118228912354,0.3262883722782135,1.2002568244934082,0.13570146262645721,0.019731398671865463,0.04041125252842903,0.014415868557989597,0.04060275852680206,1.4963310956954956,0.07709065079689026,0.05060780048370361,0.5251486301422119,0.02012462168931961,0.7039624452590942,0.02870493195950985,0.1538858860731125,0.48587775230407715,0.10193339735269547,0.028225021436810493,0.03149034455418587,0.02637631632387638,0.02372528798878193
87,87,participant_01,5dde6b9423f9f1dbee617eb2,88,stimuli/shaker.png,stimuli/revolving_door.png,70,47,70,47,4715,5221,2422,left,1773,correct,1,1,0,64,0.727272727272727,1,47,3581,0,37,0.420454545454545,1.44764244556427,0.6355581283569336,0.014836831949651241,0.04156326502561569,0.36343926191329956,0.034314874559640884,0.012606367468833923,0.005399834364652634,0.690817654132843,0.07837292551994324,0.003651275997981429,0.024889744818210602,0.004760625306516886,1.2888245582580566,1.0539982318878174,0.03365981951355934,0.002678514923900366,0.02477731928229332,0.8913372159004211,0.009948480874300003,0.02239617332816124,0.6295737028121948,0.7854196429252625,0.32158657908439636,0.018940741196274757,0.02059859409928322,0.057509467005729675,0.047971565276384354
88,88,participant_01,5dde6b9423f9f1dbee617eb2,89,stimuli/moccasin.png,stimuli/fire_pit.png,23,52,52,23,4767,5273,2445,right,771,correct,1,0,1,65,0.730337078651685,1,52,3633,1,38,0.426966292134831,0.5073637962341309,0.007905070669949055,0.32310768961906433,1.2838237285614014,0.40321728587150574,0.49711403250694275,0.1767302304506302,0.2424156814813614,0.39835113286972046,0.008936344645917416,0.8544058203697205,0.03315887227654457,0.021861711516976357,0.009300935082137585,1.2368013858795166,0.6407924890518188,0.14181400835514069,0.01810833439230919,0.6233373284339905,0.032094232738018036,0.4213772416114807,0.5889098048210144,0.660170316696167,0.2550623416900635,0.2756657004356384,0.23603183031082153,0.2911549508571625,0.03694815933704376
89,89,participant_01,5dde6b9423f9f1dbee617eb2,90,stimuli/urn.png,stimuli/padlock.png,46,96,96,46,4863,5369,2491,right,1248,correct,1,0,1,66,0.733333333333333,0,46,3679,0,38,0.422222222222222,1.0726178884506226,0.17793123424053192,0.025882236659526825,0.04581018164753914,0.6773660778999329,0.04894570633769035,0.025668228045105934,0.06839824467897415,1.5984272956848145,0.23410871624946594,0.060700833797454834,0.04661881551146507,0.008501725271344185,0.5569099187850952,2.0197882652282715,0.00920448824763298,0.006642633583396673,0.023508436977863312,0.3588009774684906,0.01165713556110859,0.026210827752947807,0.21000957489013672,0.020186223089694977,0.0599544420838356,0.008599919266998768,0.014272807165980339,0.02630670741200447,0.016769656911492348
90,90,participant_01,5dde6b9423f9f1dbee617eb2,91,stimuli/rubber_band.png,stimuli/hubcap.png,36,79,79,36,4942,5448,2527,right,720,correct,1,0,1,67,0.736263736263736,1,79,3758,1,39,0.428571428571429,0.7725623846054077,0.07477405667304993,0.014467519707977772,0.16915856301784515,0.23993799090385437,0.3796981871128082,0.518843948841095,0.004618353210389614,0.6379130482673645,0.008334704674780369,0.1981695294380188,0.2676323354244232,0.06494247913360596,0.0020777941681444645,1.482926607131958,0.21272200345993042,0.001023886725306511,0.011199052445590496,0.013125777244567871,0.006981245242059231,0.04819955304265022,1.02934730052948,1.2441610097885132,0.25636595487594604,0.014230321161448956,0.04299788922071457,0.011712777428328991,0.012978380545973778
91,91,participant_01,5dde6b9423f9f1dbee617eb2,92,stimuli/kaleidoscope.png,stimuli/home_plate.png,42,23,42,23,4984,5490,2550,left,1725,correct,1,1,0,68,0.739130434782609,0,42,3800,1,40,0.434782608695652,0.7658020853996277,0.2051662653684616,0.038342297077178955,0.20064696669578552,0.11580502241849899,1.1277916431427002,0.033797215670347214,0.4339735805988312,1.5503954887390137,0.46097132563591003,0.027112890034914017,0.006055805832147598,0.026039063930511475,0.04775968939065933,0.6452785730361938,0.0019463719800114632,0.011590508744120598,0.1341773122549057,0.49960702657699585,0.7154447436332703,0.20916104316711426,0.7705879807472229,0.008790451101958752,0.0711631178855896,0.5238875150680542,0.03509201109409332,0.019837694242596626,0.017218269407749176
92,92,participant_01,5dde6b9423f9f1dbee617eb2,93,stimuli/railing.png,stimuli/hand.png,85,5,85,5,5069,5575,2555,left,742,correct,1,1,0,69,0.741935483870968,0,85,3885,1,41,0.440860215053763,1.951804757118225,0.027522260323166847,0.007408895995467901,0.03336777165532112,0.3018386662006378,0.004381968639791012,0.17593926191329956,0.21773487329483032,0.014132975600659847,0.007930213585495949,0.19788888096809387,0.05079341679811478,0.013760948553681374,0.03078964538872242,0.48358121514320374,0.34303775429725647,0.6444925665855408,1.248976707458496,0.00023201243311632425,0.14317940175533295,0.005259331315755844,0.012834287248551846,0.015690786764025688,0.016040503978729248,0.26969113945961,0.023210564628243446,0.025575658306479454,0.004348454065620899
93,93,participant_01,5dde6b9423f9f1dbee617eb2,94,stimuli/gong.png,stimuli/fire_alarm.png,59,52,59,52,5128,5634,2607,left,1214,correct,1,1,0,70,0.74468085106383,1,52,3937,0,41,0.436170212765957,1.393560528755188,0.22161513566970825,0.02763461321592331,0.005811517592519522,0.11300916969776154,0.048495665192604065,0.04663698002696037,0.32330644130706787,1.7348002195358276,0.06951189041137695,0.02864784374833107,0.014366844668984413,0.008230366744101048,0.0007165109273046255,1.1046953201293945,0.029585503041744232,0.006438811309635639,0.03986169770359993,0.40530210733413696,0.31423071026802063,0.010875344276428223,0.42250096797943115,0.02148711122572422,0.9756054282188416,0.0064492602832615376,0.26292943954467773,0.020604731515049934,0.1018218919634819
94,94,participant_01,5dde6b9423f9f1dbee617eb2,95,stimuli/chisel.png,stimuli/stirrup.png,85,79,85,79,5213,5719,2686,left,1942,correct,1,1,0,71,0.747368421052632,0,85,4022,1,42,0.442105263157895,2.214261531829834,0.015826907008886337,0.005608270410448313,0.0103409793227911,0.0019112727604806423,0.025624889880418777,0.047252412885427475,0.01630503125488758,0.0026587906759232283,3.4651275200303644e-05,0.5161935091018677,0.009694011881947517,0.019050925970077515,0.007461278233677149,1.7123256921768188,0.03825434297323227,0.1790229082107544,0.560067355632782,0.031108807772397995,0.008471231907606125,0.06646860390901566,0.45669588446617126,0.06052936613559723,0.016040422022342682,0.5962686538696289,0.015130603685975075,0.030023200437426567,0.013457762077450752
95,95,participant_01,5dde6b9423f9f1dbee617eb2,96,stimuli/duct_tape.png,stimuli/lego.png,38,20,38,20,5251,5757,2706,left,1476,correct,1,1,0,72,0.75,1,20,4042,0,42,0.4375,1.1777150630950928,0.008932356722652912,0.04514002799987793,0.6842246055603027,0.5765506029129028,0.250821590423584,0.014444200322031975,0.018750717863440514,0.01457910519093275,0.10859432816505432,0.07140711694955826,0.017627332359552383,0.009925165213644505,0.03612678498029709,0.38423952460289,0.3311631381511688,0.005943866912275553,0.011619191616773605,0.2518022358417511,1.9699732065200806,0.06133636459708214,0.22373275458812714,0.029926300048828125,0.29282131791114807,0.3570512533187866,0.017415892332792282,0.008053374476730824,0.005422576796263456
96,96,participant_01,5dde6b9423f9f1dbee617eb2,97,stimuli/trowel.png,stimuli/latch.png,61,81,81,61,5332,5838,2767,right,1216,correct,1,0,1,73,0.752577319587629,0,61,4103,0,42,0.43298969072165,1.7973896265029907,0.4540224075317383,0.03517568111419678,0.001051453989930451,0.09929776191711426,0.006612891796976328,0.31155669689178467,0.001892088446766138,0.00460858317092061,0.0028470843099057674,0.34021279215812683,0.011797240935266018,0.0007529518916271627,0.01680021733045578,1.9240657091140747,0.0019207405857741833,0.026249468326568604,0.02662278525531292,0.7474530935287476,0.004083425737917423,0.013184989802539349,0.06817277520895004,0.018290692940354347,0.11387275904417038,0.1927318423986435,0.006393808871507645,0.07568499445915222,0.0026230253279209137
97,97,participant_01,5dde6b9423f9f1dbee617eb2,98,stimuli/helmet.png,stimuli/eyedropper.png,41,54,54,41,5386,5892,2808,right,1231,correct,1,0,1,74,0.755102040816326,0,41,4144,0,42,0.428571428571429,0.8314122557640076,0.0025746773462742567,0.0014437080826610327,0.7738744616508484,0.06934747844934464,0.5372439026832581,0.0017951064510270953,1.167919635772705,0.5782997608184814,0.01860729418694973,0.01792779564857483,0.20776855945587158,0.056801408529281616,0.005932485219091177,1.6556867361068726,0.21755897998809814,0.02990267612040043,0.22882622480392456,0.03112785518169403,0.6242915391921997,0.14702768623828888,0.010126459412276745,0.0414150133728981,0.016465116292238235,0.11703980714082718,0.02677379734814167,0.03512341156601906,0.03310753405094147
98,98,participant_01,5dde6b9423f9f1dbee617eb2,99,stimuli/crank.png,stimuli/drain.png,81,51,81,51,5467,5973,2859,left,1135,correct,1,1,0,75,0.757575757575758,0,81,4225,1,43,0.434343434343434,1.7494980096817017,0.09477159380912781,0.03174012154340744,0.0073358300141990185,0.08554583042860031,0.0054147690534591675,0.01887788064777851,0.5494072437286377,0.2897503674030304,0.025993991643190384,0.29361647367477417,0.20792162418365479,0.03597491979598999,0.005027459003031254,1.0458022356033325,0.03782875835895538,0.0656781867146492,0.0031701838597655296,0.2475362867116928,0.00744318263605237,0.15137441456317902,0.36306095123291016,0.7078760862350464,0.04604846239089966,0.011786545626819134,0.7039671540260315,0.3249034583568573,0.01397516019642353
99,99,participant_01,5dde6b9423f9f1dbee617eb2,100,stimuli/mussel.png,stimuli/mullet.png,7,5,7,5,5472,5980,2864,right,1749,incorrect,0,0,1,75,0.75,1,5,4230,0,43,0.43,0.17522583901882172,1.6418464183807373,0.7920798659324646,0.030650407075881958,0.07912210375070572,0.06892772018909454,0.1393783986568451,0.03052118793129921,0.11231288313865662,0.027589328587055206,0.051434047520160675,0.009094644337892532,0.8962807059288025,0.06744527071714401,0.03431059792637825,0.018840057775378227,0.6774255037307739,1.3894015550613403,0.009409943595528603,0.007529697380959988,0.01495517697185278,0.05302533507347107,0.027460185810923576,0.13317237794399261,0.007144581992179155,0.025344127789139748,0.0253945030272007,0.06769006699323654
100,100,participant_01,5dde6b9423f9f1dbee617eb2,101,stimuli/pedal.png,stimuli/hinge.png,100,89,100,89,5572,6080,2953,left,1196,correct,1,1,0,76,0.752475247524752,1,89,4319,0,43,0.425742574257426,2.1260569095611572,0.0035344273783266544,0.010547374375164509,0.039349429309368134,0.04077683016657829,0.007507638540118933,0.0030744352843612432,0.5606411099433899,0.03783303499221802,0.036564286798238754,0.05597323924303055,0.003960483707487583,0.059269826859235764,0.0263949204236269,1.7144355773925781,0.03139675036072731,0.012215354479849339,0.0037222225219011307,0.8987680673599243,0.004658237565308809,0.01257298793643713,0.013136248104274273,0.3910912275314331,0.045800402760505676,0.3248938024044037,0.022877473384141922,0.012237340211868286,0.04260523244738579
101,101,participant_01,5dde6b9423f9f1dbee617eb2,102,stimuli/corkboard.png,stimuli/showerhead.png,31,75,75,31,5647,6155,2984,right,703,correct,1,0,1,77,0.754901960784314,1,75,4394,1,44,0.431372549019608,0.6629767417907715,0.20591627061367035,0.018000289797782898,0.0033143169712275267,1.3327386379241943,0.48497357964515686,0.05386791750788689,0.022402571514248848,0.03069230169057846,0.4211708903312683,1.1512452363967896,0.036665383726358414,0.01858578436076641,0.011530246585607529,1.6347905397415161,0.014978316612541676,0.03535432741045952,0.37374618649482727,0.20307990908622742,0.0019911809358745813,0.01598319225013256,0.07134246826171875,0.057504765689373016,0.11144226044416428,0.050482284277677536,1.3571397066116333,0.5537134408950806,0.30595624446868896
102,102,participant_01,5dde6b9423f9f1dbee617eb2,103,stimuli/roller.png,stimuli/screw.png,61,79,79,61,5708,6234,3045,left,1591,incorrect,0,1,0,77,0.747572815533981,1,79,4473,1,45,0.436893203883495,1.4944216012954712,0.15664179623126984,0.2467753291130066,0.01119016483426094,0.20261937379837036,0.016950242221355438,0.8969298005104065,0.5165686011314392,0.25743547081947327,0.03244086354970932,0.4613926112651825,0.024634845554828644,0.0009885033359751105,0.05017544701695442,2.0207338333129883,0.016961751505732536,0.023470669984817505,0.0125546520575881,0.030173903331160545,0.05076248198747635,0.017133060842752457,0.008666629903018475,0.009020652621984482,0.010547402314841747,0.486259400844574,0.018215127289295197,0.020705651491880417,0.014570314437150955
103,103,participant_01,5dde6b9423f9f1dbee617eb2,104,stimuli/spool.png,stimuli/inkwell.png,63,73,73,63,5781,6307,3108,right,2417,correct,1,0,1,78,0.75,0,63,4536,0,45,0.432692307692308,1.3753929138183594,0.09486812353134155,0.037369027733802795,0.03420071303844452,0.2185858190059662,0.1649962216615677,0.014969772659242153,0.22649650275707245,0.8168372511863708,0.592073917388916,0.02359897457063198,0.2719027101993561,0.0038943460676819086,0.027742769569158554,1.648725152015686,0.14305691421031952,0.0036817279178649187,0.029262512922286987,0.011987334117293358,0.22784732282161713,0.0673706978559494,0.1530151069164276,0.9609650373458862,0.5933046340942383,0.06747607886791229,0.0073865847662091255,0.034263819456100464,0.09822022914886475
104,104,participant_01,5dde6b9423f9f1dbee617eb2,105,stimuli/ballot_box.png,stimuli/marmalade.png,31,1,31,1,5812,6338,3109,left,1893,correct,1,1,0,79,0.752380952380952,0,31,4567,1,46,0.438095238095238,0.6609593629837036,0.0029090731404721737,0.03721155971288681,0.41555118560791016,0.9332296252250671,0.4354320466518402,0.017415447160601616,0.052997905761003494,0.031072761863470078,0.7028768062591553,0.042022705078125,0.1891283541917801,0.011396177113056183,0.05532648414373398,0.2343597710132599,1.6417088508605957,0.14148972928524017,0.13428053259849548,0.038498684763908386,0.23943988978862762,0.333755224943161,0.007438242435455322,0.10243009775876999,0.0021851046476513147,0.10428566485643387,0.3191494643688202,0.01641096919775009,1.3722890615463257
105,105,participant_01,5dde6b9423f9f1dbee617eb2,106,stimuli/wreath.png,stimuli/bin.png,17,39,39,17,5851,6377,3126,right,1232,correct,1,0,1,80,0.754716981132076,0,17,4584,0,46,0.433962264150943,0.35656437277793884,0.484842985868454,0.1212594136595726,0.30011415481567383,0.612560510635376,0.3163301944732666,1.5661194324493408,0.15057584643363953,0.9899515509605408,0.0145560996606946,0.03589475154876709,0.0018085037590935826,0.026869649067521095,0.010813124477863312,0.9314444065093994,0.1321132779121399,0.01873868517577648,0.027331696823239326,0.9733293056488037,0.8897673487663269,0.0015927786007523537,0.34470176696777344,0.0427861325442791,0.6615384221076965,0.011278262361884117,0.028542743995785713,0.011133813299238682,0.036971013993024826
106,106,participant_01,5dde6b9423f9f1dbee617eb2,107,stimuli/ski_boots.png,stimuli/clothes.png,41,23,41,23,5892,6418,3149,left,1196,correct,1,1,0,81,0.757009345794392,0,41,4625,1,47,0.439252336448598,0.9555448293685913,0.014251830987632275,0.01467873901128769,1.0199979543685913,0.027705591171979904,0.7755349278450012,0.012355049140751362,1.144083857536316,0.04505018889904022,0.0445464625954628,0.018637774512171745,0.02477414160966873,0.16749781370162964,0.03231144696474075,0.4878031611442566,0.1391025334596634,0.010363257490098476,1.4894487857818604,1.0321719646453857,0.7931045889854431,0.04735007509589195,0.11401611566543579,0.15516752004623413,0.07608388364315033,0.11579174548387527,0.023496197536587715,0.009803734719753265,0.05248332768678665
107,107,participant_01,5dde6b9423f9f1dbee617eb2,108,stimuli/yacht.png,stimuli/raincoat.png,21,10,21,10,5913,6439,3159,left,1064,correct,1,1,0,82,0.759259259259259,0,21,4646,1,48,0.444444444444444,0.4876491129398346,0.01832576096057892,0.08413349092006683,0.09300824999809265,0.2800542712211609,0.002372316550463438,0.03658570349216461,1.5536222457885742,0.10915345698595047,0.3438775837421417,0.006868146825581789,0.06547731161117554,1.5289404392242432,0.0816776379942894,0.11145034432411194,0.01169844064861536,0.5102984309196472,1.671905755996704,0.3351956307888031,0.32554522156715393,0.5364962816238403,0.520207405090332,0.054622869938611984,0.0038459463976323605,0.06440532952547073,0.475188285112381,0.25675925612449646,0.07627180963754654
108,108,participant_01,5dde6b9423f9f1dbee617eb2,109,stimuli/projector.png,stimuli/organ.png,51,36,51,36,5964,6490,3195,left,2272,correct,1,1,0,83,0.761467889908257,1,36,4682,0,48,0.440366972477064,1.0807987451553345,0.0032528014853596687,0.0013140048831701279,0.0026469402946531773,0.4165947139263153,0.155516117811203,0.007990620099008083,0.08901109546422958,0.2420475035905838,1.8214384317398071,0.013476270250976086,0.08130249381065369,0.006875363644212484,0.025167178362607956,0.9825398325920105,0.006626124493777752,0.0002068431058432907,0.03689758852124214,0.6349375247955322,0.207119882106781,0.019054323434829712,0.15294203162193298,0.6679329872131348,0.513241171836853,1.0618460178375244,0.00077952811261639,0.005907456856220961,0.03137671574950218
109,109,participant_01,5dde6b9423f9f1dbee617eb2,110,stimuli/wine.png,stimuli/key.png,14,82,82,14,6046,6572,3209,right,1250,correct,1,0,1,84,0.763636363636364,0,14,4696,0,48,0.436363636363636,0.4692254662513733,1.5421563386917114,0.008604337461292744,0.543140172958374,0.2157316505908966,0.011565376073122025,0.0412178635597229,0.0035755671560764313,0.48244717717170715,0.04940524697303772,0.023115823045372963,0.0096270851790905,0.3658038377761841,1.8679718971252441,1.8105305433273315,0.012359105981886387,0.004124043043702841,0.05942501872777939,0.16897045075893402,0.09230175614356995,0.009499553591012955,0.18034693598747253,0.3944002389907837,0.17542050778865814,0.0031824223697185516,0.01118544489145279,0.009939948096871376,0.031469427049160004
110,110,participant_01,5dde6b9423f9f1dbee617eb2,111,stimuli/wedding_cake.png,stimuli/spark_plug.png,18,84,84,18,6130,6656,3227,right,921,correct,1,0,1,85,0.765765765765766,1,84,4780,1,49,0.441441441441441,0.3028847575187683,1.5227783918380737,0.002999864984303713,0.4114904999732971,0.5078608989715576,0.10875673592090607,0.05321566015481949,0.022282298654317856,0.8393709063529968,0.032757941633462906,0.018719390034675598,0.02343314327299595,0.006493316497653723,0.14776866137981415,1.8003321886062622,0.02169928140938282,0.005344295408576727,0.04137139022350311,0.012942105531692505,0.0349930003285408,0.00144866609480232,0.31088683009147644,0.2567363977432251,0.2510422170162201,0.01107096765190363,0.062149692326784134,0.011654727160930634,0.07106566429138184
111,111,participant_01,5dde6b9423f9f1dbee617eb2,112,stimuli/antenna.png,stimuli/walker2.png,60,20,60,20,6190,6716,3247,left,600,correct,1,1,0,86,0.767857142857143,1,20,4800,0,49,0.4375,1.50138521194458,0.0003389576158951968,0.004908708389848471,0.001454073702916503,0.08773433417081833,0.007757582236081362,0.409441202878952,0.5790494680404663,0.0402681864798069,0.5222419500350952,0.03694567084312439,0.005067348945885897,0.14878778159618378,0.007260540965944529,0.38220900297164917,0.14011067152023315,0.009505982510745525,0.3909129202365875,0.4667474031448364,1.1623274087905884,0.00645160349085927,0.828903079032898,0.378251850605011,0.10411515831947327,0.0017328562680631876,0.3720545768737793,0.03218920901417732,0.0031672667246311903
112,112,participant_01,5dde6b9423f9f1dbee617eb2,113,stimuli/nail_clippers.png,stimuli/denture.png,78,8,78,8,6268,6794,3255,left,924,correct,1,1,0,87,0.769911504424779,1,8,4808,0,49,0.433628318584071,1.8999428749084473,0.008731861598789692,0.004505521152168512,0.4809879660606384,0.003831277135759592,0.053946904838085175,0.008138276636600494,0.003660383867099881,0.02476130612194538,0.012095239013433456,0.02052900940179825,0.314022958278656,0.00025541833019815385,0.006650038529187441,0.13428747653961182,0.7835487127304077,0.2622803747653961,1.017683982849121,0.007642704993486404,0.045799512416124344,0.007465773727744818,0.01738545671105385,0.011466214433312416,0.014448569156229496,0.0031955591402947903,0.5804459452629089,0.01973922923207283,0.03285253047943115
113,113,participant_01,5dde6b9423f9f1dbee617eb2,114,stimuli/makeup.png,stimuli/parking_meter.png,13,74,74,13,6342,6868,3268,right,1131,correct,1,0,1,88,0.771929824561403,1,74,4882,1,50,0.43859649122807,0.39482465386390686,0.3172007203102112,0.006952772382646799,0.674422562122345,0.24318113923072815,1.6499578952789307,0.05462155491113663,0.0134562524035573,0.38044652342796326,0.20832078158855438,0.014699515886604786,0.010598837397992611,0.06232995167374611,0.00555576104670763,1.4952832460403442,0.05448115989565849,0.005386962555348873,0.05258392170071602,0.08709082752466202,0.01936616189777851,0.014206623658537865,0.730872392654419,0.5262289047241211,0.946149468421936,0.022648807615041733,0.044018249958753586,0.024199318140745163,0.028773576021194458
114,114,participant_01,5dde6b9423f9f1dbee617eb2,115,stimuli/bear.png,stimuli/pocketknife.png,0,69,69,0,6411,6937,3268,right,833,correct,1,0,1,89,0.773913043478261,0,0,4882,0,50,0.434782608695652,0.020575877279043198,0.0006110401009209454,2.2623627185821533,0.03258993849158287,0.015404832549393177,0.012290754355490208,0.22791652381420135,0.03196503594517708,0.012059065513312817,0.012538619339466095,0.11565010249614716,0.009411257691681385,0.021034512668848038,0.0001829961547628045,2.04683256149292,0.17018119990825653,0.013776073232293129,0.228835329413414,0.04801058769226074,0.30102235078811646,0.04098515585064888,0.015044410713016987,0.07010219991207123,0.05949985608458519,0.45118650794029236,0.013987313024699688,0.028449486941099167,0.010549246333539486
115,115,participant_01,5dde6b9423f9f1dbee617eb2,116,stimuli/nail_file.png,stimuli/suit.png,53,20,53,20,6464,6990,3288,left,650,correct,1,1,0,90,0.775862068965517,0,53,4935,1,51,0.439655172413793,1.5384489297866821,0.0313112773001194,0.003901977092027664,0.46282386779785156,0.0996919497847557,0.5722627639770508,0.18595381081104279,0.011772450990974903,0.018960170447826385,0.03927712142467499,0.04554999619722366,0.40013930201530457,0.011321349069476128,0.020117871463298798,0.31956467032432556,0.010472605004906654,0.28482183814048767,2.064661979675293,0.2771618068218231,0.012804827652871609,0.0008135609095916152,0.004643286112695932,0.08258920907974243,0.19230513274669647,0.0057171001099050045,0.010983668267726898,0.0029894651379436255,0.06640855222940445
116,116,participant_01,5dde6b9423f9f1dbee617eb2,117,stimuli/hammer.png,stimuli/fur_coat.png,88,6,88,6,6552,7078,3294,left,700,correct,1,1,0,91,0.777777777777778,1,6,4941,0,51,0.435897435897436,2.206594467163086,0.0050529963336884975,0.01624467596411705,0.09879262000322342,0.03974917531013489,0.008590515702962875,0.05462504178285599,0.04466506838798523,0.011484491638839245,0.018795426934957504,0.17007680237293243,0.00556251872330904,0.01089226920157671,0.00694859866052866,0.07532491534948349,0.09529401361942291,0.86268550157547,1.7125784158706665,0.8382114171981812,0.17114335298538208,0.00468817725777626,0.028740039095282555,0.36007773876190186,0.014786298386752605,0.07574950158596039,0.035988546907901764,0.024736329913139343,0.014414462260901928
117,117,participant_01,5dde6b9423f9f1dbee617eb2,118,stimuli/treasure.png,stimuli/playpen.png,35,9,35,9,6587,7113,3303,left,1299,correct,1,1,0,92,0.779661016949153,0,35,4976,1,52,0.440677966101695,0.7370145320892334,0.17560629546642303,0.055027659982442856,0.25123992562294006,0.49978357553482056,0.8468135595321655,0.18222126364707947,0.08483298867940903,0.9311248660087585,0.10670068114995956,0.5331054329872131,0.016210243105888367,0.6075586676597595,0.01062281709164381,0.1695915162563324,0.10111534595489502,0.5444847941398621,0.657233715057373,1.0179511308670044,0.8885230422019958,0.036884501576423645,0.35405611991882324,0.007896422408521175,0.009107881225645542,0.17999278008937836,0.043213021010160446,0.01738010160624981,0.027166416868567467
118,118,participant_01,5dde6b9423f9f1dbee617eb2,119,stimuli/rake.png,stimuli/brake.png,48,88,88,48,6675,7201,3351,right,1266,correct,1,0,1,93,0.781512605042017,1,88,5064,1,53,0.445378151260504,1.447460651397705,0.09069958329200745,0.02624022774398327,0.10641128569841385,0.010855469852685928,0.4573749005794525,1.0382283926010132,0.38030004501342773,0.008960029110312462,0.003362758317962289,0.23758307099342346,0.023630045354366302,0.02311619184911251,0.010802985168993473,1.8459619283676147,0.0032615303061902523,0.012537296861410141,0.03708024322986603,0.04064793512225151,0.008719454519450665,0.013103975914418697,0.3861868679523468,0.24495214223861694,0.05065793916583061,0.36414238810539246,0.00559715973213315,0.01631290279328823,0.009590622037649155
119,119,participant_01,5dde6b9423f9f1dbee617eb2,120,stimuli/mousse.png,stimuli/doghouse.png,8,35,35,8,6683,7236,3359,left,2843,incorrect,0,1,0,93,0.775,1,35,5099,1,54,0.45,0.052586451172828674,2.1680908203125,0.011179490014910698,0.250014990568161,0.04120826721191406,0.03302380442619324,0.02339961566030979,0.03056255169212818,0.364886611700058,0.005571812856942415,0.07543981075286865,0.37465518712997437,0.014243954792618752,0.05588754266500473,0.8402686715126038,0.02302250824868679,0.7643440365791321,0.011944732628762722,1.2071380615234375,0.017157169058918953,0.5715646147727966,0.7286335229873657,0.21687380969524384,0.003750443924218416,0.8276957273483276,0.01951000466942787,0.013695746660232544,0.014212393201887608
120,120,participant_01,5dde6b9423f9f1dbee617eb2,121,stimuli/machete.png,stimuli/roll.png,46,1,46,1,6729,7282,3360,left,1004,correct,1,1,0,94,0.776859504132231,0,46,5145,1,55,0.454545454545455,1.4890720844268799,0.09992049634456635,0.47555750608444214,0.26772549748420715,0.009474432095885277,0.02244999073445797,1.1130505800247192,0.044012635946273804,0.014916375279426575,0.01062074862420559,0.08619600534439087,0.016805488616228104,0.03674778714776039,0.007280983962118626,0.006453910376876593,2.130525588989258,0.09771950542926788,0.01403926219791174,0.008852455765008926,0.004602659493684769,0.020641082897782326,0.011882313527166843,0.25021886825561523,0.008308368735015392,0.021867962554097176,0.03081924095749855,0.008339406922459602,0.006543679162859917
121,121,participant_01,5dde6b9423f9f1dbee617eb2,122,stimuli/altar.png,stimuli/bamboo.png,25,2,25,2,6754,7307,3362,left,1600,correct,1,1,0,95,0.778688524590164,1,2,5147,0,55,0.450819672131148,0.74822598695755,0.09095516800880432,0.030343862250447273,0.07990714907646179,1.2378846406936646,0.2841333746910095,0.0797402411699295,0.08707712590694427,0.576444149017334,0.14431160688400269,0.6185328364372253,0.008298346772789955,0.0048746224492788315,0.14077599346637726,0.3186962604522705,0.5928013324737549,0.40270939469337463,0.10270674526691437,0.24888399243354797,0.09962287545204163,1.3660309314727783,0.03229358792304993,0.0413084477186203,0.011246982030570507,1.3711779117584229,0.009894037619233131,0.017780262976884842,0.00583598343655467
122,122,participant_01,5dde6b9423f9f1dbee617eb2,123,stimuli/cigar.png,stimuli/towel.png,13,14,14,13,6767,7321,3375,left,1474,incorrect,0,1,0,95,0.772357723577236,0,13,5160,0,55,0.447154471544715,0.6536808013916016,0.34009742736816406,0.014274775981903076,0.4088290333747864,0.02184160053730011,0.15454652905464172,0.15470881760120392,0.003477691439911723,0.004917889833450317,0.02316431701183319,0.724128246307373,0.04610089585185051,0.004616395104676485,0.5040649175643921,0.4272928535938263,0.35476645827293396,0.0111508434638381,1.0513317584991455,1.286057949066162,0.8611893653869629,0.18551330268383026,0.04664682224392891,0.04475032538175583,0.009825481101870537,0.008099784143269062,0.47013211250305176,0.0029809060506522655,0.017826979979872704
123,123,participant_01,5dde6b9423f9f1dbee617eb2,124,stimuli/tractor.png,stimuli/bell.png,47,70,70,47,6837,7391,3422,right,1067,correct,1,0,1,96,0.774193548387097,1,70,5230,1,56,0.451612903225806,0.8910555243492126,0.15679216384887695,0.1521306037902832,0.028959419578313828,0.00628399895504117,0.004401904996484518,0.8482605218887329,1.5699336528778076,0.003021880751475692,0.27455440163612366,0.0733112245798111,0.012057093903422356,0.006901608780026436,0.006159888114780188,1.5551056861877441,0.011782431043684483,0.07843944430351257,0.020221348851919174,0.08796051144599915,0.12703457474708557,0.04943223297595978,0.25599122047424316,1.1475141048431396,0.10083802044391632,0.3009876012802124,0.013407968915998936,0.0037995479069650173,0.01611015573143959
124,124,participant_01,5dde6b9423f9f1dbee617eb2,125,stimuli/periscope.png,stimuli/blouse.png,57,6,57,6,6894,7448,3428,left,1092,correct,1,1,0,97,0.776,0,57,5287,1,57,0.456,1.2460179328918457,0.00039248180110007524,0.5450387597084045,0.69881671667099,0.0009372608037665486,0.02218380570411682,0.035464294254779816,0.9198129773139954,0.07851570844650269,0.726470947265625,0.013047419488430023,0.011507435701787472,0.5101841688156128,0.1074226126074791,0.029090294614434242,0.014187954366207123,0.30041995644569397,2.2070343494415283,0.4694065451622009,0.3162049353122711,0.07156636565923691,0.024040373042225838,0.09197172522544861,0.015204684808850288,0.005933195818215609,0.029359055683016777,0.0055968547239899635,0.028818771243095398
125,125,participant_01,5dde6b9423f9f1dbee617eb2,126,stimuli/doorknocker.png,stimuli/toaster.png,83,68,83,68,6962,7531,3496,right,1107,incorrect,0,0,1,97,0.76984126984127,1,68,5355,0,57,0.452380952380952,1.6829558610916138,0.0617818757891655,0.053842440247535706,0.0563071072101593,0.4616350531578064,0.017330007627606392,0.22336658835411072,0.027813632041215897,0.7829608917236328,0.07401038706302643,0.023383405059576035,0.04980400204658508,0.004009820520877838,0.027910392731428146,1.3293538093566895,1.0246433019638062,0.017984580248594284,0.0059050582349300385,0.3840864598751068,0.015978941693902016,0.019878694787621498,0.13761617243289948,0.0014306945959106088,1.16111421585083,0.013098686933517456,0.04134337976574898,0.015078242868185043,0.048287615180015564
126,126,participant_01,5dde6b9423f9f1dbee617eb2,127,stimuli/pet_food.png,stimuli/defibrillator.png,12,58,58,12,6974,7589,3508,left,2037,incorrect,0,1,0,97,0.763779527559055,0,12,5367,0,57,0.448818897637795,0.1852552890777588,1.5427416563034058,0.4462890923023224,0.004055319353938103,0.05063699558377266,0.08601023256778717,0.00301633239723742,0.02879340387880802,0.47221753001213074,0.022002117708325386,0.05284375324845314,0.3633936941623688,0.021761121228337288,0.0331052765250206,1.1529620885849,0.050422150641679764,0.006600025109946728,0.21048416197299957,0.46662208437919617,0.0603402778506279,0.012353562749922276,0.11718770861625671,0.024347247555851936,1.5424234867095947,0.013325302861630917,0.5715100765228271,0.04064967855811119,0.012033338658511639
127,127,participant_01,5dde6b9423f9f1dbee617eb2,128,stimuli/ramp.png,stimuli/mud.png,45,14,45,14,7019,7634,3522,left,681,correct,1,1,0,98,0.765625,1,14,5381,0,57,0.4453125,1.0607538223266602,0.0008345282985828817,0.012983808293938637,0.04799901321530342,0.8801313638687134,0.003772574244067073,0.20995761454105377,0.9136734008789062,0.019907193258404732,0.038527511060237885,0.06943219155073166,0.07772713899612427,0.03390109911561012,0.006716829724609852,0.18422923982143402,0.26237818598747253,0.31674614548683167,0.016416257247328758,0.2719169855117798,0.02007366344332695,0.7025059461593628,0.26244866847991943,0.010948052629828453,0.006208703853189945,0.7792558670043945,0.2562355101108551,0.6500951647758484,0.013427987694740295
128,128,participant_01,5dde6b9423f9f1dbee617eb2,129,stimuli/trombone.png,stimuli/harp.png,67,48,67,48,7086,7701,3570,left,1214,correct,1,1,0,99,0.767441860465116,1,48,5429,0,57,0.441860465116279,1.6419732570648193,0.03496549651026726,0.05216348543763161,0.2211759090423584,0.049185167998075485,0.19572922587394714,0.0015708307037129998,0.19976402819156647,0.6995105743408203,0.004989078734070063,0.08173898607492447,0.006288854405283928,0.037684813141822815,0.02555781789124012,1.2044216394424438,0.017087038606405258,0.0020535369403660297,0.19075660407543182,0.568915843963623,0.1891331672668457,0.0071909260004758835,0.13928233087062836,0.818885862827301,0.05124349892139435,0.8805376291275024,4.750028529088013e-05,0.00724030751734972,0.021384377032518387
129,129,participant_01,5dde6b9423f9f1dbee617eb2,130,stimuli/pencil_sharpener.png,stimuli/button2.png,75,74,75,74,7160,7776,3644,right,1118,incorrect,0,0,1,99,0.761538461538461,1,74,5503,0,57,0.438461538461538,1.8712247610092163,0.0722341388463974,0.0057808952406048775,0.03750942647457123,0.1318436563014984,0.4081520736217499,0.01196607481688261,0.023314643651247025,0.05443805828690529,0.3491189181804657,0.06386283785104752,0.08033514767885208,0.015952788293361664,0.02342810481786728,1.3470572233200073,0.042346201837062836,0.011628102511167526,0.04539327323436737,0.3316437304019928,0.10613670945167542,0.008466256782412529,0.03622783347964287,1.0891296863555908,0.6747349500656128,0.03996818885207176,0.23123186826705933,0.023716624826192856,0.008900188840925694
130,130,participant_01,5dde6b9423f9f1dbee617eb2,131,stimuli/gramophone.png,stimuli/kayak.png,61,27,61,27,7221,7837,3671,left,1197,correct,1,1,0,100,0.763358778625954,0,61,5564,1,58,0.442748091603053,1.2671265602111816,0.04938396438956261,0.05450471118092537,0.10259067267179489,0.10854344069957733,0.06375782191753387,0.015111553482711315,0.2907813489437103,1.461632490158081,0.8336797952651978,0.226819708943367,0.035006385296583176,0.009602829813957214,0.08154240250587463,0.6780987977981567,0.03794360160827637,0.5701100826263428,0.22393707931041718,0.024437058717012405,0.39401495456695557,0.5387355089187622,1.6102036237716675,0.01591276377439499,0.049412861466407776,0.20980967581272125,0.013640699908137321,1.6110942363739014,0.007388060446828604
131,131,participant_01,5dde6b9423f9f1dbee617eb2,132,stimuli/freezer.png,stimuli/wing.png,48,53,53,48,7274,7890,3719,right,2000,correct,1,0,1,101,0.765151515151515,1,53,5617,1,59,0.446969696969697,0.8830875158309937,0.48137763142585754,0.01124443020671606,0.017968131229281425,1.0668977499008179,0.002209700644016266,0.027772067114710808,0.3126380145549774,0.022238362580537796,0.8934244513511658,0.00019407941726967692,0.479183167219162,0.03482815623283386,0.019332939758896828,1.0186505317687988,0.008406775072216988,0.14141225814819336,0.019014235585927963,0.14920885860919952,0.027026832103729248,0.00557766854763031,1.4873677492141724,0.023188330233097076,0.5846700072288513,0.02099561132490635,0.014129704795777798,0.3660230040550232,0.016471996903419495
