,Var1,participant_n,trial_n,ImageLeft,ImageRight,RewardLeft,RewardRight,MaxReward,MinReward,TotalReward,MaxPerformance,MinPerformance,responseKey,RT,response,PCorrectChoice,leftChoice,rightChoice,CumSum,CumPCorrect,SimChoice,SimReward,RandomPerformance,PCorrectChoiceSim,CumSum_sim,CumPCorrect_sim,loadings_left1,loadings_left2,loadings_left3,loadings_left4,loadings_left5,loadings_left6,loadings_left7,loadings_left8,loadings_left9,loadings_left10,loadings_left11,loadings_left12,loadings_left13,loadings_left14,loadings_right1,loadings_right2,loadings_right3,loadings_right4,loadings_right5,loadings_right6,loadings_right7,loadings_right8,loadings_right9,loadings_right10,loadings_right11,loadings_right12,loadings_right13,loadings_right14
0,0,participant_01,1,stimuli/hard_disk.png,stimuli/mandolin.png,50,43,50,43,50,50,43,left,845,correct,1,1,0,1,1,1,43,43,0,0,0,1.07840991020203,0.00625336542725563,0.00113717571366578,0.0205402299761772,0.0542597435414791,0.127369433641434,0.00654535787180066,0.33142426609993,0.00534209236502647,2.11308622360229,0.0196925848722458,0.00131315283942968,0.00607337197288871,0.0159253142774105,1.25561654567719,0.00643381429836154,0.0170205291360617,0.381177663803101,0.0159282926470041,0.359938532114029,0.0419225133955479,0.149789735674858,1.011958360672,0.435090571641922,0.63671886920929,0.0322734154760838,0.0030615171417594,0.0199884790927172
1,1,participant_01,2,stimuli/vent.png,stimuli/koala.png,56,0,56,0,50,106,43,right,1709,incorrect,0,0,1,1,0.5,1,0,43,0,0,0,1.11017715930939,0.0146204801276326,0.00225150468759239,0.00368225784040987,1.21252775192261,0.00699636153876781,0.0971741452813149,0.180771246552467,0.00425976561382413,0.157050043344498,0.0755972042679787,0.0148871913552284,0.02003606967628,0.0111158257350326,0.0326790809631348,0.0223430804908276,2.28926038742065,0.0795093476772308,0.0396816544234753,0.00743495346978307,0.35097324848175,0.0271973870694637,0.00997199490666389,0.00107629783451557,0.0217698384076357,0.0155683476477861,0.00128792272880673,0.0233430005609989
2,2,participant_01,3,stimuli/teabag.png,stimuli/trigger.png,15,69,69,15,65,175,58,left,1545,incorrect,0,1,0,1,0.333333333333333,0,15,58,0,0,0,0.366007596254349,1.1677473783493,0.00799738895148039,0.111264072358608,0.837789237499237,0.928652584552765,0.545447766780853,0.00204606307670474,0.0102796396240592,0.0231738276779652,0.0586713925004005,0.0161459408700466,0.0177370775490999,0.50023752450943,1.60760223865509,0.00333612598478794,0.00662773801013827,0.117132425308228,0.0129787204787135,0.0220070816576481,0.00344211631454527,0.279083698987961,0.0179472137242556,0.284710377454758,0.0146657107397914,0.00867553986608982,0.00514905713498592,0.0278138630092144
3,3,participant_01,4,stimuli/puddle.png,stimuli/stair.png,2,32,32,2,97,207,60,right,1088,correct,1,0,1,2,0.5,0,2,60,0,0,0,0.151173904538155,0.0963902249932289,0.564850568771362,0.0268097072839737,0.0192257054150105,0.0292501710355282,1.59126925468445,0.442616313695908,0.310259282588959,0.0166047140955925,0.18803071975708,0.598553419113159,1.08827674388886,0.0585755109786987,0.757793366909027,0.0277176257222891,0.00181012821849436,0.0188835002481937,1.2043993473053,0.151229962706566,0.0406089201569557,0.071807399392128,0.11988477408886,0.0337797217071056,1.29553818702698,0.0393262505531311,0.00106785097159445,0.0282326582819223
4,4,participant_01,5,stimuli/vial.png,stimuli/dagger.png,37,72,72,37,134,279,97,left,1563,incorrect,0,1,0,2,0.4,1,72,132,1,1,0.2,1.00243508815765,0.00635537365451455,0.00459223939105868,0.188788712024689,0.0079105431213975,0.474760949611664,0.00221132813021541,0.00884761568158865,0.0384689047932625,0.110310912132263,0.00953013729304075,0.962588310241699,0.00969282258301973,0.320819020271301,1.97278678417206,0.0248226877301931,0.113164447247982,0.0867257043719292,0.0134003711864352,0.0208601132035255,0.0437783040106297,0.0153440339490771,0.236170902848244,0.0101374601945281,0.383910208940506,0.0295990835875273,0.0276683308184147,0.0391683131456375
5,5,participant_01,6,stimuli/traffic_light.png,stimuli/horseshoe.png,47,77,77,47,181,356,144,left,1324,incorrect,0,1,0,2,0.333333333333333,0,47,179,0,1,0.166666666666667,0.936516344547272,0.0125866876915097,0.00427790405228734,0.0185158792883158,0.0459506176412106,0.385025024414062,0.0893399119377136,1.17161726951599,0.226893827319145,0.873391270637512,0.0414644367992878,0.00150440877769142,0.0174280367791653,0.0168442521244288,1.7380096912384,0.0120210479944944,0.363305330276489,0.350679039955139,0.0431771837174892,0.0867499858140945,0.275914460420609,0.409529596567154,0.634599983692169,0.00943097937852144,0.281034022569656,0.0159374475479126,0.0529850795865059,0.0234975274652243
6,6,participant_01,7,stimuli/volleyball.png,stimuli/landmine.png,25,50,50,25,231,406,169,right,999,correct,1,0,1,3,0.428571428571429,0,25,204,0,1,0.142857142857143,0.561573684215546,0.120278343558311,0.0137752778828144,0.270069986581802,0.00738391559571028,1.09165859222412,0.0742058604955673,0.652092158794403,0.833297312259674,0.00571192288771272,0.148610904812813,0.055118303745985,0.0344362482428551,0.0115095498040318,1.15175879001617,0.0884881392121315,0.113380938768387,0.00216008280403912,0.00357391848228872,0.00534828612580895,0.522310853004456,0.445725560188293,0.622455835342407,0.299824565649033,0.0747808590531349,0.0010875822044909,0.00562829803675413,0.0136785078793764
7,7,participant_01,8,stimuli/bowtie.png,stimuli/cement_mixer.png,22,51,51,22,282,457,191,right,1194,correct,1,0,1,4,0.5,1,51,255,1,2,0.25,0.260946154594421,0.0106362504884601,0.241422742605209,1.77680313587189,0.26059964299202,1.1293820142746,0.00590689666569233,0.05118777602911,0.330206125974655,0.0818309411406517,0.0118144098669291,0.0270096585154533,0.00816463120281696,0.118966102600098,1.17184495925903,0.0788166970014572,0.0290908999741077,0.0193865615874529,0.046810407191515,0.00379833369515836,0.0338687486946583,1.02033698558807,0.10166048258543,0.204110577702522,0.859939217567444,0.281083881855011,0.00181802886072546,0.0504126958549023
8,8,participant_01,9,stimuli/hot-water_bottle.png,stimuli/polo_shirt.png,11,4,11,4,293,468,195,left,932,correct,1,1,0,5,0.555555555555556,1,4,259,0,2,0.222222222222222,0.26207447052002,0.301493018865585,0.0840306803584099,0.21485523879528,0.547168552875519,0.0933896377682686,0.214788571000099,0.84932678937912,0.625812768936157,0.0926765128970146,0.05692508071661,1.00429940223694,1.33367466926575,0.591892659664154,0.0370491668581963,0.0652511194348335,0.35107558965683,1.93935060501099,0.0560707040131092,0.490857899188995,0.267833590507507,0.0612772814929485,0.0299815218895674,0.00962824653834105,0.00272949156351387,0.00176744710188359,0.016043309122324,0.0187206380069256
9,9,participant_01,10,stimuli/christmas_card.png,stimuli/copier.png,16,55,55,16,348,523,211,right,1167,correct,1,0,1,6,0.6,0,16,275,0,2,0.2,0.272760182619095,0.0721260830760002,0.376337826251984,0.0286408010870218,0.814065754413605,1.28191912174225,0.0312634482979774,0.0263276938349009,0.026081919670105,0.237535089254379,0.0244631692767143,0.0145445745438337,0.00504218600690365,0.0280436109751463,1.10514569282532,0.00355492811650038,0.00613596616312861,0.036645520478487,0.872962474822998,0.0584901385009289,0.0180820859968662,0.405869334936142,0.036443155258894,1.50277149677277,0.0312210265547037,0.0851335003972054,0.0283724740147591,0.00663109542801976
10,10,participant_01,11,stimuli/snail.png,stimuli/lamppost.png,12,34,34,12,360,557,223,left,1115,incorrect,0,1,0,6,0.545454545454545,1,34,309,1,3,0.272727272727273,0.0972706452012062,0.506755948066711,1.57819795608521,0.053854264318943,0.0159824974834919,0.0133259063586593,0.592753946781158,0.0316385962069035,0.525636792182922,0.00695114443078637,0.0287123396992683,0.0522552914917469,0.409484893083572,0.00935372710227966,1.02501153945923,0.0110614849254489,0.351978898048401,0.00814283825457096,0.297694563865662,0.0199202038347721,1.35973596572876,0.453936278820038,0.182740762829781,0.0618271976709366,0.115035988390446,0.0130193652585149,0.00753451744094491,0.235769689083099
11,11,participant_01,12,stimuli/road_sign.png,stimuli/telephone_pole.png,25,43,43,25,385,600,248,left,1614,incorrect,0,1,0,6,0.5,1,43,352,1,4,0.333333333333333,0.748301148414612,0.00898826215416193,0.275438100099564,0.0098156314343214,0.0814460963010788,0.279654175043106,0.873740136623383,1.1206191778183,0.00834339763969183,0.0737638920545578,0.297471821308136,0.00816398207098246,0.00644194660708308,0.0216643903404474,1.12611699104309,0.00121887901332229,0.0119566386565566,0.00141085858922452,0.288771480321884,0.00452579604461789,0.40839210152626,0.762759327888489,0.0156158786267042,0.384784609079361,0.817458033561707,0.0018347593722865,0.00384478131309152,0.00864275917410851
12,12,participant_01,13,stimuli/boar.png,stimuli/trumpet.png,1,62,62,1,447,662,249,right,1316,correct,1,0,1,7,0.538461538461538,0,1,353,0,4,0.307692307692308,0.0229278728365898,0.173633798956871,2.38519525527954,0.0107389185577631,0.0109924990683794,0.0203493572771549,0.134369388222694,0.0150973629206419,0.0268480218946934,0.0104453144595027,0.0166594590991735,0.010594179853797,0.0143899424001575,0.0116382818669081,1.54627573490143,0.0350594855844975,0.0395171828567982,0.175488471984863,0.0166559517383575,0.403159290552139,0.020896352827549,0.162858098745346,0.578296661376953,0.0114115076139569,0.128020942211151,0.00929048750549555,0.0186489224433899,0.005910431034863
13,13,participant_01,14,stimuli/tuning_fork.png,stimuli/squirt_gun.png,80,18,80,18,527,742,267,left,1515,correct,1,1,0,8,0.571428571428571,0,80,433,1,5,0.357142857142857,2.01072311401367,0.0657982677221298,0.0479804575443268,0.0436749011278152,0.0447039715945721,0.10618582367897,0.0553575828671455,0.0161635614931583,0.202422425150871,0.0166245382279158,0.0566244274377823,0.00510499626398087,0.00309500237926841,0.0334535427391529,0.75904643535614,0.0190465413033962,0.514785706996918,0.978193759918213,0.0135970944538713,0.329559981822968,0.172729268670082,0.567603290081024,0.00601608352735639,0.0190091598778963,0.0147636169567704,0.557220160961151,0.674169361591339,0.0956897437572479
14,14,participant_01,15,stimuli/screwdriver.png,stimuli/balloon.png,72,7,72,7,599,814,274,left,1098,correct,1,1,0,9,0.6,0,72,505,1,6,0.4,2.06100296974182,0.0213731080293655,0.00424599973484874,0.0339562818408012,0.020089203491807,0.121578834950924,0.0567249283194542,0.105965003371239,0.0136171830818057,0.0505076684057713,0.0144877005368471,0.0384689755737782,0.010237080976367,0.02348199672997,0.138835325837135,0.421899646520615,0.03005126491189,0.152545958757401,0.0832118093967438,1.82176077365875,0.469624906778336,0.457164436578751,0.420349091291428,0.00674212630838156,0.0119313830509782,0.0194950364530087,0.021581657230854,0.125625103712082
15,15,participant_01,16,stimuli/brooch.png,stimuli/throne.png,26,28,28,26,625,842,300,left,1362,incorrect,0,1,0,9,0.5625,0,26,531,0,6,0.375,0.417868196964264,0.221326932311058,0.0657331123948097,1.45643377304077,0.367668062448502,0.65095329284668,0.387116968631744,0.0147888846695423,1.14751183986664,0.00136938272044063,0.0582769066095352,0.00692527834326029,0.0764183104038239,0.0386971458792686,0.68257600069046,0.0565730072557926,0.0496004819869995,0.3375443816185,0.933933675289154,0.416591137647629,0.00854517705738544,0.654432058334351,1.00473260879517,0.0149556081742048,0.28564777970314,0.00910749100148678,0.0667592585086823,0.094543494284153
16,16,participant_01,17,stimuli/pliers.png,stimuli/chainsaw.png,87,59,87,59,712,929,359,left,941,correct,1,1,0,10,0.588235294117647,1,59,590,0,6,0.352941176470588,2.16795325279236,0.029826957732439,0.044186782091856,0.00552829215303063,0.00622419454157352,0.0145422788336873,0.0165538508445025,0.0920111984014511,0.00755814835429192,0.0385654084384441,0.00981387868523598,0.00554685574024916,0.049418430775404,0.0267089996486902,1.68115592002869,0.00410852581262589,0.0135209960862994,0.00591662991791964,0.00261572748422623,0.0186246186494827,0.160365417599678,0.786794066429138,0.0103063210844994,0.256950855255127,0.130590677261353,0.00686756847426295,0.0203569978475571,0.0123766958713532
17,17,participant_01,18,stimuli/zipper.png,stimuli/tapestry.png,82,7,82,7,794,1011,366,left,979,correct,1,1,0,11,0.611111111111111,0,82,672,1,7,0.388888888888889,1.76225209236145,0.00261414027772844,0.0278273429721594,0.875909209251404,0.437721401453018,0.241525158286095,0.0146856913343072,0.0459638014435768,0.141940921545029,0.0407154336571693,0.00779781769961119,0.00433473428711295,0.0461140982806683,0.00906143989413977,0.198490932583809,0.0349039398133755,0.018306402489543,1.30440580844879,0.776661038398743,0.977084338665009,0.24780447781086,0.00192286027595401,0.783428251743317,0.0100310174748302,0.0201364234089851,0.0221723672002554,0.0347911790013313,0.0175090935081244
18,18,participant_01,19,stimuli/sandbox.png,stimuli/wine_cooler.png,19,57,57,19,813,1068,385,left,1223,incorrect,0,1,0,11,0.578947368421053,1,57,729,1,8,0.421052631578947,0.542236864566803,0.0604385733604431,0.247251391410828,0.0573579259216785,0.921387672424316,0.505534768104553,0.467616379261017,0.611655235290527,0.081770271062851,0.0649866536259651,1.07726836204529,0.512333571910858,0.54275780916214,0.00625351257622242,1.26679301261902,1.22950172424316,0.00962674897164106,0.205114141106606,0.212509825825691,0.106547765433788,0.0374325625598431,0.0667853653430939,0.413126677274704,0.188809469342232,0.0414533093571663,0.164061903953552,0.0340100303292274,1.32866096496582
19,19,participant_01,20,stimuli/skull.png,stimuli/container.png,7,42,42,7,820,1110,392,left,1747,incorrect,0,1,0,11,0.55,0,7,736,0,8,0.4,0.270685911178589,0.0403891131281853,0.851107180118561,0.900381088256836,0.00529060419648886,0.0243911594152451,0.0110158240422606,0.0226981863379478,0.377255022525787,0.00759720476344228,0.736136615276337,0.00783000700175762,0.0298754777759314,0.0112741887569428,0.948984503746033,0.0242455750703812,0.0167002528905869,3.08454109472223E-05,0.870686650276184,0.0855276733636856,0.0412650741636753,0.88706111907959,0.00892384722828865,0.136142134666443,0.365200459957123,0.00166748161427677,0.0740533471107483,0.00504708662629128
20,20,participant_01,21,stimuli/headlamp.png,stimuli/mailbox.png,53,43,53,43,873,1163,435,left,1399,correct,1,1,0,12,0.571428571428571,1,43,779,0,8,0.380952380952381,1.44745659828186,0.021944884210825,0.0374201573431492,0.650596499443054,0.00604929123073816,0.231105402112007,0.00386866158805788,0.416878461837769,0.126869395375252,0.77782154083252,0.0159196890890598,0.00663057202473283,0.0648171678185463,0.0113619798794389,0.942895293235779,0.033926360309124,0.160196259617805,0.0431294962763786,0.748574733734131,0.0195543430745602,0.700553834438324,0.428584367036819,0.404316782951355,0.375470340251923,0.113899648189545,0.012616422958672,0.000924964842852205,0.0181639771908522
21,21,participant_01,22,stimuli/prism.png,stimuli/handbrake.png,37,60,60,37,933,1223,472,right,1466,correct,1,0,1,13,0.590909090909091,1,60,839,1,9,0.409090909090909,0.925636410713196,0.00458937184885144,0.0857278183102608,0.0514213852584362,0.259713441133499,0.425423353910446,0.481470346450806,0.00930931232869625,0.281978338956833,0.173132210969925,0.454964935779572,0.120944254100323,0.430356413125992,0.0999493971467018,1.63254880905151,0.0345242358744144,0.0143225146457553,0.368143975734711,0.0770161524415016,0.0116341961547732,5.46698465768713E-05,1.02450323104858,0.0431975312530994,0.547297596931458,0.0133875608444214,0.132990449666977,0.0227411612868309,0.0295997392386198
22,22,participant_01,23,stimuli/bathrobe.png,stimuli/centrifuge.png,10,70,70,10,1003,1293,482,right,1048,correct,1,0,1,14,0.608695652173913,1,70,909,1,10,0.434782608695652,0.163160160183907,0.185348749160767,0.0341556780040264,1.80917465686798,1.10117387771606,0.101661048829556,0.0550354234874249,0.0569864772260189,0.463324427604675,0.0676319971680641,0.0118984347209334,0.838623344898224,0.354803383350372,0.0157684907317162,1.32814621925354,0.0932257771492004,0.00129448506049812,0.03353026881814,0.0560720078647137,0.0400400906801224,0.00428433250635862,0.295270681381226,0.508801519870758,1.36393880844116,0.0133724203333259,0.590788781642914,0.0542801171541214,0.0155547428876162
23,23,participant_01,24,stimuli/scalpel.png,stimuli/bulletin_board.png,59,15,59,15,1062,1352,497,left,1301,correct,1,1,0,15,0.625,0,59,968,1,11,0.458333333333333,1.66681277751923,0.0664738938212395,0.0385091565549374,0.444969803094864,0.0208073873072863,0.193884894251823,0.00236092903651297,0.0326169580221176,0.0544599741697311,0.0121162179857492,0.00724984239786863,0.0943821743130684,0.00714139826595783,0.0279644839465618,0.330161899328232,0.0252647176384926,0.00192010682076216,0.0177245587110519,0.756845355033875,1.24146854877472,0.0167759265750647,0.02896973118186,0.00692566344514489,0.897392749786377,0.0864210650324822,0.00849000457674265,0.0098395086824894,0.0206507053226233
24,24,participant_01,25,stimuli/gear.png,stimuli/hip.png,83,10,83,10,1145,1435,507,left,941,correct,1,1,0,16,0.64,1,10,978,0,11,0.44,1.57616400718689,0.0471805296838284,0.00691937142983079,0.0178908370435238,0.0182761177420616,0.0737860649824142,0.0420110858976841,0.51135790348053,0.713525176048279,0.498136222362518,0.015122476965189,0.0124721964821219,0.0407588966190815,0.0181625429540873,0.0193558037281036,0.305944383144379,0.397550642490387,1.88398730754852,0.0876945108175278,0.0244132988154888,0.00902055483311415,0.123788125813007,0.0174716487526894,0.0205386094748974,0.00355470995418727,0.0543518587946892,0.0362647324800491,0.000840149354189634
25,25,participant_01,26,stimuli/rosary.png,stimuli/stilt.png,30,20,30,20,1175,1465,527,left,1250,correct,1,1,0,17,0.653846153846154,0,30,1008,1,12,0.461538461538462,0.852614164352417,0.0233611334115267,0.0120831234380603,0.727103710174561,0.105586268007755,0.559551537036896,0.211610674858093,0.0073129627853632,0.945049464702606,0.0317636393010616,0.362286776304245,0.009363385848701,0.00817008968442678,0.00682436442002654,0.63702803850174,0.00595563184469938,0.699968099594116,1.10782873630524,0.00334970280528069,0.0115370834246278,0.0875766426324844,0.795649766921997,0.00628461502492428,0.00462195603176951,1.06851851940155,0.00955597404390574,0.00463461317121983,0.0133621077984571
26,26,participant_01,27,stimuli/laser_pointer.png,stimuli/doorhandle.png,65,91,91,65,1240,1556,592,left,1540,incorrect,0,1,0,17,0.62962962962963,1,91,1099,1,13,0.481481481481481,1.70520663261414,0.000540455803275108,0.0161778479814529,0.0411399006843567,0.0101343747228384,0.412675499916077,0.0355386696755886,0.0358356311917305,0.0128945615142584,0.423828840255737,0.0231250002980232,0.0231147464364767,0.0666156262159348,0.0182389635592699,1.93278527259827,0.0670520439743996,0.00982532184571028,0.00657465262338519,0.477495700120926,0.00744247948750854,0.00243475963361561,0.0790315493941307,0.136025846004486,0.0243109837174416,0.00537536852061749,0.502167582511902,0.0108042238280177,0.0195598620921373
27,27,participant_01,28,stimuli/earring.png,stimuli/wine_bottle.png,58,42,58,42,1298,1614,634,left,1168,correct,1,1,0,18,0.642857142857143,1,42,1141,0,13,0.464285714285714,1.19554901123047,0.0884784311056137,0.00378694012761116,0.874677836894989,0.0422830879688263,0.682745516300201,0.0337385758757591,0.0440651290118694,0.537721931934357,0.0311068166047335,0.0121491719037294,0.0385225117206573,0.0368771404027939,0.012427638284862,1.06750535964966,0.955191612243652,0.00838770717382431,0.0957473739981651,0.407359302043915,0.390214473009109,0.125211253762245,0.0781102478504181,0.620246231555939,0.021018186584115,0.0441512502729893,0.101765096187592,0.151383146643639,1.63747024536133
28,28,participant_01,29,stimuli/fast_food.png,stimuli/switch.png,2,62,62,2,1360,1676,636,right,790,correct,1,0,1,19,0.655172413793103,0,2,1143,0,13,0.448275862068966,0.0341239757835865,1.98935747146606,0.156323552131653,0.0266963224858046,0.0104434350505471,0.0367306098341942,0.0202556829899549,0.0419221892952919,0.0248472783714533,0.0241890624165535,0.0360200107097626,0.0130722289904952,0.0369593687355518,0.0114135639742017,1.36134684085846,0.0330299846827984,0.00325562665238976,0.0144332610070705,0.0720632821321487,0.671268343925476,0.0301470309495926,0.214760735630989,0.0102457944303751,0.950616776943207,0.0335247665643692,0.0341815389692783,0.026964632794261,0.0488643757998943
29,29,participant_01,30,stimuli/hairdryer.png,stimuli/paperweight.png,52,48,52,48,1408,1728,684,right,1402,incorrect,0,0,1,19,0.633333333333333,1,48,1191,0,13,0.433333333333333,1.36003232002258,0.162067294120789,0.17245315015316,0.663590013980866,0.0819467827677727,0.577460706233978,0.0207625180482864,0.242017284035683,0.00626137619838119,0.400999635457993,0.014659239910543,0.911629259586334,0.0222298037260771,0.0128122540190816,0.887966513633728,0.176969200372696,0.00251941755414009,0.125470668077469,0.937956154346466,0.136939391493797,0.00331427855417132,0.00345304142683744,0.389722913503647,0.510347008705139,0.00441802572458983,0.131680995225906,0.0116183487698436,0.166692808270454
30,30,participant_01,31,stimuli/tab.png,stimuli/exerciser.png,84,54,84,54,1462,1812,738,right,1372,incorrect,0,0,1,19,0.612903225806452,1,54,1245,0,13,0.419354838709677,1.64466512203217,0.47127166390419,0.00803231354802847,0.0104091754183173,0.0462843254208565,0.390091598033905,0.0718799903988838,0.0271920021623373,0.360831171274185,0.309733986854553,0.0777064636349678,0.0207406431436539,0.00658149085938931,0.0207993723452091,1.34911572933197,0.0794197767972946,0.127780020236969,1.02212059497833,0.00721819745376706,0.0803862810134888,0.0351352207362652,0.771992623806,0.0181459728628397,0.318887799978256,0.00363602465949953,0.071443222463131,0.0425742007791996,0.00742428516969085
31,31,participant_01,32,stimuli/water_filter.png,stimuli/lab_coat.png,58,26,58,26,1520,1870,764,left,1138,correct,1,1,0,20,0.625,1,26,1271,0,13,0.40625,1.39995241165161,0.681622803211212,0.035244096070528,0.0974346399307251,0.201638400554657,0.0120031274855137,0.094446025788784,0.199878498911858,0.0487540178000927,0.557681679725647,0.0188173726201057,1.17757070064545,0.694092750549316,0.637208461761475,0.54915314912796,0.0977071672677994,0.00346570205874741,1.34052979946136,1.05801236629486,0.266776174306869,0.0211297068744898,0.192643851041794,0.00460047135129571,0.0882243141531944,0.00280097010545433,0.276262491941452,0.0258699916303158,0.0278900917619467
32,32,participant_01,33,stimuli/swimsuit.png,stimuli/rust.png,16,38,38,16,1558,1908,780,right,1631,correct,1,0,1,21,0.636363636363636,1,38,1309,1,14,0.424242424242424,0.234787493944168,0.0162547938525677,0.00150803907308728,1.5158451795578,0.406228393316269,0.929753065109253,0.190464437007904,0.189243674278259,0.000866233254782856,0.0210981741547585,0.00455529009923339,0.00931524392217398,0.759334862232208,0.00838182866573334,0.854199290275574,0.0870045274496079,0.0012945068301633,0.00599445588886738,0.291740357875824,0.00160440662875772,0.097468227148056,0.387980937957764,0.227464869618416,0.0477540269494057,0.655767261981964,0.0270174965262413,0.00914804078638554,0.00922469608485699
33,33,participant_01,34,stimuli/turnstile.png,stimuli/camcorder.png,84,56,84,56,1642,1992,836,left,1609,correct,1,1,0,22,0.647058823529412,1,56,1365,0,14,0.411764705882353,1.71871864795685,0.0120389880612493,0.00777054019272327,0.00110867293551564,0.472896814346314,0.00964359007775784,0.00864631496369839,0.658526718616486,0.0330168940126896,0.459548592567444,0.00938337575644255,0.00261609558947384,0.025753928348422,0.0158348400145769,1.13133251667023,0.00252482644282281,0.179011538624764,0.543101668357849,0.00617901561781764,0.0227486956864595,0.0068183783441782,0.32832407951355,0.120513416826725,1.72938311100006,0.0115552181378007,0.00544474832713604,0.0566496662795544,0.0328252017498016
34,34,participant_01,35,stimuli/pitchfork.png,stimuli/chain.png,62,81,81,62,1723,2073,898,right,1173,correct,1,0,1,23,0.657142857142857,0,62,1427,0,14,0.4,1.73600208759308,0.20341320335865,0.313329577445984,0.0204489137977362,0.0543642602860928,0.0287546887993813,0.943897724151611,0.369199395179749,0.0156290605664253,0.00242082518525422,0.465876370668411,0.0169909596443176,0.0152633115649223,0.00453484058380127,1.80669260025024,0.0119729591533542,0.0130970720201731,0.141353577375412,0.0252794809639454,0.111559748649597,0.0364517159759998,0.245313987135887,0.0559351667761803,0.0507724471390247,0.112391598522663,0.00979430321604013,0.106874622404575,0.00991232506930828
35,35,participant_01,36,stimuli/sock.png,stimuli/clasp.png,24,84,84,24,1807,2157,922,right,1121,correct,1,0,1,24,0.666666666666667,0,24,1451,0,14,0.388888888888889,0.579407036304474,0.121740184724331,0.205381378531456,1.6663556098938,0.622952222824097,0.516814708709717,0.290477454662323,0.102311976253986,0.0441569499671459,0.0214167572557926,0.0957590416073799,0.0775552317500114,0.0466791056096554,0.0249564312398434,1.86123490333557,0.00388233526609838,0.00869734864681959,0.102637879550457,0.0422929525375366,0.496006965637207,0.00503872893750668,0.194852843880653,0.154996857047081,0.0303348079323769,0.0180290658026934,0.0470345355570316,0.0281377695500851,0.0119534656405449
36,36,participant_01,37,stimuli/eraser.png,stimuli/bulletproof_vest.png,41,27,41,27,1848,2198,949,left,1297,correct,1,1,0,25,0.675675675675676,1,27,1478,0,14,0.378378378378378,1.0879282951355,0.0190181285142899,0.00446181511506438,0.357807636260986,0.233172714710236,0.708985209465027,0.00869058351963759,0.0195130966603756,0.039126068353653,0.666744351387024,0.0107115218415856,0.179790213704109,0.0149107947945595,0.040049210190773,0.759734988212585,0.00800219085067511,0.228257521986961,1.91711580753326,0.296012371778488,0.0573126971721649,0.0160559471696615,0.522081613540649,0.0401183068752289,0.374072313308716,0.0331279225647449,0.0104142902418971,0.0149948755279183,0.0155697064474225
37,37,participant_01,38,stimuli/stiletto.png,stimuli/marble.png,34,32,34,32,1882,2232,981,left,1714,correct,1,1,0,26,0.684210526315789,0,34,1512,1,15,0.394736842105263,0.853103399276733,0.102753289043903,0.0550800859928131,1.36213755607605,0.539963483810425,0.222508937120438,0.00786089338362217,0.0353891588747501,0.349922299385071,0.125667199492455,0.0272134747356176,0.00877617672085762,0.0160565208643675,0.232069924473763,0.67132842540741,0.345436930656433,0.00797371566295624,0.0138565422967076,0.00864300131797791,1.27475833892822,0.330947428941727,0.13204587996006,1.2903825044632,0.131004214286804,0.033290408551693,0.320058971643448,0.215183913707733,0.0266864225268364
38,38,participant_01,39,stimuli/crystal1.png,stimuli/camper.png,46,34,46,34,1916,2278,1015,right,957,incorrect,0,0,1,26,0.666666666666667,0,46,1558,1,16,0.41025641025641,0.535402357578278,0.389616847038269,0.0699187889695168,0.0747876018285751,0.27766090631485,0.109240286052227,0.690529704093933,0.0213361717760563,0.549361050128937,0.0246752388775349,0.529447734355927,0.349378049373627,0.520242094993591,0.395179510116577,0.699868559837341,0.0223787631839514,0.0176240801811218,0.0709940269589424,0.577634036540985,0.0211554821580648,0.0251001995056868,1.90432035923004,0.0649365708231926,0.646796584129334,0.02238461188972,0.0915558114647865,0.0772645324468613,0.0165963936597109
39,39,participant_01,40,stimuli/snorkel.png,stimuli/lock.png,42,81,81,42,1997,2359,1057,right,1259,correct,1,0,1,27,0.675,0,42,1600,0,16,0.4,1.0288542509079,0.0575320236384869,0.045410767197609,0.659449279308319,0.00620073638856411,0.51079648733139,0.0664253607392311,0.524180352687836,0.211326256394386,0.0707941502332687,0.0168234463781118,0.546921670436859,1.64200854301453,0.0706515535712242,1.7546169757843,0.00793241616338491,0.0335798263549805,0.0675698816776276,0.847681105136871,0.0218834802508354,0.0189985707402229,0.021202839910984,0.0281017255038023,0.2642742395401,0.215262368321419,0.0370771810412407,0.0128885367885232,0.00221912912093103
40,40,participant_01,41,stimuli/wheelbarrow.png,stimuli/broom.png,54,33,54,33,2030,2413,1090,right,1181,incorrect,0,0,1,27,0.658536585365854,1,33,1633,0,16,0.390243902439024,1.20672762393951,0.262786090373993,0.42171773314476,0.0581791736185551,0.328584969043732,0.00068343710154295,1.2369030714035,1.07849812507629,0.0736295208334923,0.0113261109218001,0.062706857919693,0.0550925470888615,0.00527577102184296,0.0143143646419048,1.35735929012299,0.0256564076989889,0.036784578114748,0.234423622488976,0.51463109254837,0.0350282564759254,0.29282084107399,0.019009180366993,0.00143082020804286,0.00728045077994466,0.66061794757843,0.301268428564072,0.0273862723261118,0.00575444335117936
41,41,participant_01,42,stimuli/peanut.png,stimuli/wheelchair.png,1,60,60,1,2090,2473,1091,right,1547,correct,1,0,1,28,0.666666666666667,0,1,1634,0,16,0.380952380952381,0.0550074875354767,1.87806630134583,0.529465258121491,0.00472369929775596,0.0373301804065704,0.0931665822863579,0.528097867965698,0.0422934666275978,0.0849982872605324,0.0281481985002756,0.815486967563629,0.00740807224065065,0.0232641808688641,0.0481867641210556,1.28865790367126,0.00461080949753523,0.0472957119345665,0.437481850385666,0.493014723062515,0.0268428325653076,0.00341610005125403,1.07906782627106,0.142296656966209,0.219777196645737,0.0172781273722649,0.00185750296805054,0.0160139352083206,0.0165286120027304
42,42,participant_01,43,stimuli/wrench.png,stimuli/duster.png,97,16,97,16,2187,2570,1107,left,1133,correct,1,1,0,29,0.674418604651163,0,97,1731,1,17,0.395348837209302,2.28012228012085,0.0228228513151407,0.0182713475078344,0.00596769759431481,0.00486620655283332,0.000687551568262279,0.0304495133459568,0.0684190988540649,0.00938418041914701,0.010123954154551,0.0935153886675835,0.00157535576727241,0.0265761110931635,0.00626364909112453,0.821211874485016,0.295774728059769,0.287454128265381,0.275975316762924,0.69138640165329,0.619812369346619,0.350319683551788,0.0194870624691248,0.0389256924390793,0.00327291758731008,0.212240099906921,0.45745512843132,0.00457966700196266,0.0125714037567377
43,43,participant_01,44,stimuli/backscratcher.png,stimuli/hook2.png,39,76,76,39,2263,2646,1146,right,1506,correct,1,0,1,30,0.681818181818182,1,76,1807,1,18,0.409090909090909,1.2979873418808,0.379654079675674,0.0474581085145474,0.430933326482773,0.504807233810425,0.295134633779526,0.0258619487285614,0.0118318758904934,0.0207313988357782,0.0102497162297368,0.84983241558075,0.00960092712193728,0.00338890845887363,0.0107624530792236,1.78797972202301,0.0205859914422035,0.131725683808327,0.125118464231491,0.0531621351838112,0.0774397701025009,0.331571489572525,0.148973166942596,0.248552978038788,0.00909895077347755,0.307723641395569,0.0124545143917203,0.182290658354759,0.00956076197326183
44,44,participant_01,45,stimuli/plastic_film.png,stimuli/diskette.png,25,39,39,25,2302,2685,1171,right,970,correct,1,0,1,31,0.688888888888889,0,25,1832,0,18,0.4,0.740747809410095,0.952866554260254,0.00566757703199983,0.45362800359726,0.741277098655701,0.288595616817474,0.0310001615434885,0.0243334136903286,0.0353699177503586,0.169403210282326,0.0426272638142109,0.775284349918366,0.02644894272089,0.0267486181110144,0.653633415699005,0.00539567042142153,0.00419484497979283,0.023111317306757,0.568342089653015,0.00824223831295967,0.00951490364968777,0.00347044575028121,0.00259646959602833,1.61001169681549,0.0140342824161053,0.00986799690872431,0.00108665542211384,0.00887936446815729
45,45,participant_01,46,stimuli/fuse.png,stimuli/fishnet_stockings.png,70,9,70,9,2372,2755,1180,left,916,correct,1,1,0,32,0.695652173913043,1,9,1841,0,18,0.391304347826087,1.43072533607483,0.0610833875834942,0.00301834126003087,0.0872784778475761,0.0616236813366413,0.894040048122406,0.00500706909224391,0.0144861340522766,0.00676931021735072,0.378480851650238,0.00252775778062642,0.0906479060649872,0.00832061097025871,0.0868331491947174,0.274531096220016,0.0733461230993271,0.378706693649292,1.81353902816772,0.263035982847214,0.269290119409561,0.0353964082896709,0.00571888731792569,0.00199078512378037,0.00151112023741007,0.0224499590694904,0.0200849734246731,0.0247086100280285,0.0124295400455594
46,46,participant_01,47,stimuli/incubator.png,stimuli/seismograph.png,26,53,53,26,2425,2808,1206,right,1636,correct,1,0,1,33,0.702127659574468,1,53,1894,1,19,0.404255319148936,0.611000180244446,0.988885641098022,0.801838994026184,0.0575740858912468,0.160585656762123,0.198682174086571,0.409530639648438,0.00504590477794409,0.02191973477602,0.59766012430191,0.449681013822556,0.363063156604767,0.130939126014709,0.0167338382452726,1.10806083679199,0.0201113317161798,0.00404966017231345,0.0823783725500107,0.437170416116715,0.229543074965477,0.0580709800124168,0.145550981163979,0.257796615362167,1.5383917093277,0.00369404768571258,0.202373489737511,0.0273356437683105,0.0409308969974518
47,47,participant_01,48,stimuli/crowbar.png,stimuli/tackle.png,67,46,67,46,2492,2875,1252,left,1973,correct,1,1,0,34,0.708333333333333,1,46,1940,0,19,0.395833333333333,1.83929526805878,0.0266180988401175,0.174463614821434,0.0042717456817627,0.00185975129716098,0.00027421917184256,0.320308983325958,0.24319826066494,0.00328546692617238,0.00207226839847863,0.629454731941223,0.00516342045739293,0.089954286813736,0.0114293415099382,0.929153323173523,0.235363721847534,0.279374271631241,0.056098535656929,0.201671913266182,1.21844220161438,0.42392572760582,0.0468943789601326,0.0449923388659954,0.116676963865757,0.0291873719543219,0.0355705693364143,0.969820022583008,0.0200670305639505
48,48,participant_01,49,stimuli/notepad.png,stimuli/dresser.png,32,36,36,32,2524,2911,1284,left,2668,incorrect,0,1,0,34,0.693877551020408,0,32,1972,0,19,0.387755102040816,0.748005151748657,0.0133788604289293,0.00767279881983995,0.117626577615738,1.00665009021759,0.811927735805512,0.0890526697039604,0.00487037049606442,0.00177475495729595,0.575044512748718,0.237182304263115,0.0369462668895721,0.00412651430815458,0.0322638414800167,0.833784520626068,0.0569763258099556,0.00773863354697824,0.163091152906418,1.72249662876129,0.0935880318284035,0.0163806322962046,0.0763611048460007,0.22395558655262,0.208488926291466,0.643170952796936,0.0297807939350605,0.00973690766841173,0.0102446880191565
49,49,participant_01,50,stimuli/carousel.png,stimuli/slicer.png,21,85,85,21,2609,2996,1305,right,1331,correct,1,0,1,35,0.7,1,85,2057,1,20,0.4,0.415440291166306,0.0962548777461052,0.362605214118958,0.0365477092564106,0.229456797242165,0.95419716835022,0.0388332158327103,0.950863718986511,0.835703551769257,0.106521613895893,0.186227709054947,0.00827370584011078,0.00938323605805635,0.00768650183454156,1.52565360069275,0.884966790676117,0.0156453587114811,0.00336218485608697,0.0144804865121841,0.0118373660370708,0.00868853274732828,0.242925435304642,0.337770074605942,0.92794269323349,0.00673530157655478,0.0488651841878891,0.0106456317007542,0.00562527310103178
50,50,participant_01,51,stimuli/butter.png,stimuli/sheet.png,21,9,21,9,2618,3017,1314,right,1842,incorrect,0,0,1,35,0.686274509803922,0,21,2078,1,21,0.411764705882353,0.482040822505951,2.09753894805908,0.151602134108543,0.132081493735313,0.0220257584005594,0.0387094840407372,0.179812774062157,0.00248273345641792,0.0553944371640682,0.0144264800474048,0.040103692561388,0.0292305592447519,0.0249341391026974,0.0125162666663527,0.130497172474861,0.247137486934662,0.0305984634906054,1.0268474817276,1.47059953212738,0.21780714392662,0.137455776333809,0.01380261965096,0.114507585763931,0.00962285045534372,0.0417611710727215,0.131225883960724,0.0404202081263065,0.0646738484501839
51,51,participant_01,52,stimuli/toaster_oven.png,stimuli/humvee.png,61,41,61,41,2659,3078,1355,right,2214,incorrect,0,0,1,35,0.673076923076923,1,41,2119,0,21,0.403846153846154,1.23129737377167,1.02349090576172,0.00971242878586054,0.000724367971997708,0.611934840679169,0.0112504521384835,0.00319521245546639,0.317275822162628,0.0247120968997478,1.18957543373108,0.00609705736860633,0.0286922454833984,0.0368575416505337,0.0154205150902271,0.822987973690033,0.00497620599344373,0.0682274028658867,0.0043496866710484,0.0578636638820171,0.000316072284476832,0.00376899330876768,1.7639240026474,0.00991928204894066,0.40619283914566,0.0460459552705288,0.00559035874903202,0.00573512585833669,0.00127101945690811
52,52,participant_01,53,stimuli/punch2.png,stimuli/mixer.png,79,58,79,58,2738,3157,1413,left,3248,correct,1,1,0,36,0.679245283018868,0,79,2198,1,22,0.415094339622642,1.93971681594849,0.0324355401098728,0.0196604244410992,0.0529607459902763,0.00690141180530191,0.276798099279404,0.0103592742234468,0.00521544879302383,0.00756271556019783,0.33017298579216,0.0198522321879864,0.00792703218758106,0.0237744003534317,0.00420727534219623,1.33736479282379,1.24746215343475,0.0125373415648937,0.00961450487375259,0.24028705060482,0.0169577840715647,0.00516282953321934,0.260715752840042,0.25992277264595,0.591695547103882,0.00572367385029793,0.50530618429184,0.0129696577787399,0.541691064834595
53,53,participant_01,54,stimuli/crystal2.png,stimuli/aluminum_foil.png,12,63,63,12,2801,3220,1425,right,1472,correct,1,0,1,37,0.685185185185185,1,63,2261,1,23,0.425925925925926,0.855476796627045,0.147696554660797,0.00584977865219116,0.0624026656150818,0.299196720123291,0.129850938916206,0.0452127531170845,0.147579550743103,1.63590013980865,0.471676349639893,0.00437684496864677,0.918523490428925,0.0171878896653652,0.0598983690142632,1.2795844078064,0.894567668437958,0.000783947762101889,0.0503760240972042,0.674385845661163,0.345517724752426,0.0241925828158855,0.0220647361129522,0.0172531139105558,0.012248975224793,0.0210135169327259,0.292657732963562,0.0224132165312767,0.0132650202140212
54,54,participant_01,55,stimuli/microscope.png,stimuli/painting.png,70,5,70,5,2871,3290,1430,left,733,correct,1,1,0,38,0.690909090909091,1,5,2266,0,23,0.418181818181818,1.53425812721252,0.00980613473802805,0.0279545895755291,0.0886351019144058,0.00127555045764893,0.0273766294121742,0.003320008283481,0.144859030842781,0.119063533842564,1.19628822803497,0.00391076831147075,0.346976935863495,0.137310072779655,0.0461116768419743,0.374808579683304,0.224136129021645,0.400685459375382,0.347281992435455,0.385450929403305,1.18669056892395,1.28215646743774,0.152926787734032,0.413360178470612,0.0688565745949745,0.226287588477135,0.0390593111515045,0.0108937211334705,0.0625991076231003
55,55,participant_01,56,stimuli/eggbeater.png,stimuli/metal_detector.png,76,50,76,50,2947,3366,1480,left,725,correct,1,1,0,39,0.696428571428571,1,50,2316,0,23,0.410714285714286,1.77335906028748,1.06057119369507,0.00639656418934464,0.0401636175811291,0.00618250947445631,0.292045682668686,0.00284664402715862,0.230615526437759,0.100698962807655,0.0297371670603752,0.0125228753313422,0.0741827562451363,0.00248610274866223,0.0156414769589901,1.66374111175537,0.0128792561590672,0.476777285337448,0.500926613807678,0.0423172153532505,0.0540758222341538,0.324489414691925,0.399516761302948,0.19242849946022,0.311016708612442,0.0721686482429504,0.0336821228265762,0.331803441047668,0.00451488606631756
56,56,participant_01,57,stimuli/soda.png,stimuli/shelf.png,5,68,68,5,3015,3434,1485,right,1307,correct,1,0,1,40,0.701754385964912,0,5,2321,0,23,0.403508771929825,0.0316995866596699,1.54400157928467,0.00325254420749843,0.0869986042380333,0.0284381397068501,0.79349958896637,0.0997416898608208,0.135980904102325,0.294956117868423,0.0760688558220863,0.010081603191793,0.105917170643806,0.463246136903763,1.59625089168549,1.40780758857727,0.0390933454036713,0.00599490059539676,0.0140609443187714,1.26284158229828,0.0636920407414436,0.0108396233990788,0.330347269773483,0.0442203097045422,0.307528555393219,0.0121660148724914,0.0184956695884466,0.00526064028963447,0.00966683682054281
57,57,participant_01,58,stimuli/bookmark.png,stimuli/poster.png,19,13,19,13,3034,3453,1498,left,3814,correct,1,1,0,41,0.706896551724138,0,19,2340,1,24,0.413793103448276,0.473534971475601,0.0203232392668724,0.108289435505867,0.162258952856064,0.593455016613007,1.41449213027954,0.00163303734734654,0.00108651979826391,0.252556651830673,0.336260885000229,0.364429235458374,0.00887305662035942,0.00915685947984457,0.016847537830472,0.226281374692917,0.00658651534467936,0.00513399392366409,0.0907668247818947,0.653731048107147,0.847827017307282,0.00777324428781867,0.0668155774474144,0.0329556092619896,0.968306362628937,0.238081395626068,0.0333154387772083,0.00547712296247482,0.0169678628444672
58,58,participant_01,59,stimuli/bra.png,stimuli/pulley.png,18,67,67,18,3101,3520,1516,right,974,correct,1,0,1,42,0.711864406779661,1,67,2407,1,25,0.423728813559322,0.118003360927105,0.0681323856115341,0.0282916352152824,1.60829412937164,0.304468780755997,0.833727538585663,0.0845746472477913,0.0515779517591,0.294734925031662,0.0185246355831623,0.00409347796812654,0.173555359244347,0.397074431180954,0.0228148885071278,1.49615371227264,0.200457751750946,0.0908962711691856,0.0894837379455566,0.269643664360046,0.0808267891407013,0.0615389682352543,0.146833047270775,0.829459428787231,0.125746846199036,1.0750949382782,0.0178311448544264,0.0109811257570982,0.0297933388501406
59,59,participant_01,60,stimuli/coal.png,stimuli/motherboard.png,23,52,52,23,3153,3572,1539,right,985,correct,1,0,1,43,0.716666666666667,1,52,2459,1,26,0.433333333333333,0.689411818981171,0.713681638240814,0.00446541886776686,0.0223358944058418,0.0805182531476021,0.0369383282959461,0.56033581495285,0.107785880565643,0.149031892418861,0.032888438552618,0.727030873298645,0.123150855302811,0.0351140201091766,0.0230905469506979,1.0536413192749,5.74524456169456E-05,0.0144200418144465,0.0115354144945741,0.0754346773028374,0.106510497629642,0.00447740592062473,0.0969458967447281,0.00224688136950135,1.7434629201889,0.00901851803064346,0.00491628842428327,0.00862077996134758,0.0024080581497401
60,60,participant_01,61,stimuli/target.png,stimuli/napkin_ring.png,32,40,40,32,3193,3612,1571,right,2814,correct,1,0,1,44,0.721311475409836,0,32,2491,0,26,0.426229508196721,0.838969767093658,0.107264444231987,0.213054433465004,0.172986924648285,0.00268458481878042,1.04866778850555,0.313893646001816,0.750752449035645,0.917657732963562,0.284628242254257,0.468562215566635,0.0461864992976189,0.0663619339466095,0.0143927959725261,0.869388103485107,0.731312274932861,0.0248836409300566,0.517052412033081,0.447951346635819,0.569017112255096,0.0379903055727482,0.0343916118144989,1.28515136241913,0.0422872342169285,0.727924704551697,0.212097108364105,0.045481339097023,0.00945731997489929
61,61,participant_01,62,stimuli/coat.png,stimuli/finger.png,30,12,30,12,3223,3642,1583,left,1207,correct,1,1,0,45,0.725806451612903,0,30,2521,1,27,0.435483870967742,0.439883261919022,0.0673262178897858,0.0345303975045681,1.7143394947052,0.826493620872498,0.0325020849704742,0.0094252172857523,0.00794685818254948,0.108302608132362,0.152975142002106,0.0198639985173941,0.0144165344536304,0.0173132978379726,0.0219011846929789,0.354714930057526,0.236737489700317,0.517522692680359,1.40329098701477,0.00264949537813663,0.0533051453530788,0.010135062970221,0.00560616189613938,0.0112375458702445,0.0597159825265408,0.0756609588861465,0.0165416374802589,0.0164849776774645,0.0099029615521431
62,62,participant_01,63,stimuli/tablecloth.png,stimuli/saw.png,24,70,70,24,3293,3712,1607,right,698,correct,1,0,1,46,0.73015873015873,0,24,2545,0,27,0.428571428571429,0.709069907665253,0.756510555744171,0.012595122680068,0.425168722867966,1.99316143989563,0.142527237534523,0.00270406273193657,0.00313829234801233,0.107516281306744,0.151644632220268,0.0373966209590435,0.183960646390915,0.0133399050682783,0.0835329368710518,1.97492063045502,0.0168843436986208,0.0101689007133245,0.0125847635790706,0.0252783093601465,0.0129848066717386,0.102714255452156,0.0164001788944006,0.00637486390769482,0.0161021649837494,0.529308974742889,0.0168279372155666,0.012038585729897,0.0148675050586462
63,63,participant_01,64,stimuli/birdcage.png,stimuli/aircraft_carrier.png,56,45,56,45,3338,3768,1652,right,1520,incorrect,0,0,1,46,0.71875,0,56,2601,1,28,0.4375,1.11315417289734,0.0875921919941902,0.785744547843933,0.0011192838428542,0.560793459415436,0.10213728249073,0.0671960562467575,0.227395787835121,0.693735420703888,0.0105760032311082,0.140601605176926,0.0355780646204948,0.0616822354495525,0.0252866335213184,0.961517453193665,0.00238469988107681,0.00175456737633795,0.00491955783218145,0.0719316527247429,0.00521590607240796,0.00315700308419764,1.38061594963074,0.0168132241815329,0.47913533449173,0.00793955568224192,0.035470936447382,1.38958132266998,0.0207767784595489
64,64,participant_01,65,stimuli/cocktail.png,stimuli/nutcracker.png,8,83,83,8,3421,3851,1660,right,839,correct,1,0,1,47,0.723076923076923,0,8,2609,0,28,0.430769230769231,0.243411734700203,1.50648319721222,0.0113846696913242,0.438171476125717,0.0573954284191132,0.114663474261761,0.00708231516182423,0.0240270476788282,0.607211112976074,0.0107529358938336,0.0114752957597375,0.191599547863007,0.255055725574493,1.49003159999847,2.04981732368469,0.336159139871597,0.0326494723558426,0.0327463373541832,0.0043237553909421,0.0320953764021397,0.0109366839751601,0.0236378572881222,0.017890676856041,0.0125569859519601,0.00351836369372904,0.0158284269273281,0.0177958067506552,0.00160090054851025
65,65,participant_01,66,stimuli/sim_card.png,stimuli/diving_board.png,48,35,48,35,3469,3899,1695,left,736,correct,1,1,0,48,0.727272727272727,0,48,2657,1,29,0.439393939393939,0.943659365177155,0.00314142764545977,0.00079206598456949,0.0164610724896193,0.188889369368553,0.501870274543762,0.00830835290253162,0.0897627472877502,0.0357697419822216,1.52099478244782,0.0242450907826424,0.0120367873460054,0.00995081383734942,0.00439278408885002,1.01710629463196,0.0131287798285484,0.0093354806303978,0.0116893760859966,0.659932076931,0.462109863758087,0.179607421159744,0.0277084223926067,0.00760592194274068,0.0250334348529577,0.246094241738319,0.00154596928041428,0.923685133457184,0.00320136430673301
66,66,participant_01,67,stimuli/bottle_opener.png,stimuli/chips.png,69,0,69,0,3538,3968,1695,left,915,correct,1,1,0,49,0.73134328358209,1,0,2657,0,29,0.432835820895522,1.91986680030823,0.266488522291183,0.00708218058571219,0.0495126806199551,0.0112657407298684,0.290951669216156,0.0134546272456646,0.024209588766098,0.0109896594658494,0.0257170479744673,0.0128722889348865,0.0263419654220343,0.00676102377474308,0.0596960335969925,0.00579061172902584,2.20499730110168,0.00614348473027349,0.0265900790691376,0.048917755484581,0.201874673366547,0.00634648371487856,0.0159419123083353,0.0143547086045146,0.00625039450824261,0.0608725994825363,0.0100461523979902,0.00904169399291277,0.0138092432171106
67,67,participant_01,68,stimuli/guitar.png,stimuli/grinder.png,41,82,82,41,3620,4050,1736,right,1097,correct,1,0,1,50,0.735294117647059,0,41,2698,0,29,0.426470588235294,1.18111109733582,0.0224787928164005,0.0229105483740568,0.436147391796112,0.153474912047386,0.560615003108978,0.0166781544685364,0.0951512530446053,0.888286411762238,0.582663357257843,0.591508150100708,0.0142970271408558,0.0242896676063538,0.023207513615489,1.71023523807526,0.788980841636658,0.030324125662446,0.025712713599205,0.132215082645416,0.00296245282515883,0.0403445810079575,0.281815588474274,0.728665709495544,0.144055813550949,0.0112490728497505,0.11061093211174,0.0590567551553249,0.126836255192757
68,68,participant_01,69,stimuli/snowplow.png,stimuli/kettle.png,35,75,75,35,3655,4125,1771,left,1648,incorrect,0,1,0,50,0.72463768115942,0,35,2733,0,29,0.420289855072464,0.841716170310974,0.0381382256746292,0.000722575059626251,0.0115476846694946,0.0448640435934067,0.00566382613033056,0.207066223025322,1.71802937984467,0.00370316114276648,0.0596026703715324,0.0311565008014441,0.0668528228998184,0.0316735841333866,0.0591554455459118,1.50341999530792,0.996070683002472,0.0140986014157534,0.0669440925121307,0.204581052064896,0.00892341416329145,0.0285012796521187,0.209542155265808,0.34276819229126,0.380639433860779,0.000981916440650821,0.757355213165283,0.00886858254671097,0.73621529340744
69,69,participant_01,70,stimuli/spout.png,stimuli/coil.png,63,87,87,63,3742,4212,1834,right,1190,correct,1,0,1,51,0.728571428571429,1,87,2820,1,30,0.428571428571429,1.40339410305023,0.373967945575714,0.373272240161896,0.00066037941724062,0.136953204870224,0.0299076568335295,0.70723032951355,0.518678069114685,0.115071766078472,0.0204982236027718,0.0565255805850029,1.10445189476013,0.597486138343811,0.951909840106964,1.78866994380951,0.170860916376114,0.0237177852541208,0.0218785833567381,0.327713578939438,0.152990862727165,0.0196037013083696,0.0826357081532478,0.658526182174683,0.13734033703804,0.0111657632514834,0.0235052593052387,0.0200217552483082,0.0528073273599148
70,70,participant_01,71,stimuli/lingerie.png,stimuli/seaweed.png,0,2,2,0,3744,4214,1834,right,898,correct,1,0,1,52,0.732394366197183,1,2,2822,1,31,0.436619718309859,0.00696901511400938,0.0720608904957771,0.302567631006241,2.0979642868042,0.343111157417297,0.0216622874140739,0.0143892886117101,0.00250633154064417,0.0571844428777695,0.00266474834643304,0.0253725685179234,0.0145483184605837,0.0223427452147007,0.0239002965390682,0.0894155353307724,0.684162259101868,0.594346046447754,0.0834696441888809,0.0479499772191048,0.518954992294312,1.28269553184509,0.0221424978226423,0.161762043833733,0.0203164834529161,0.0890150889754295,0.00284879864193499,0.639124929904938,0.0224241316318512
71,71,participant_01,72,stimuli/brush.png,stimuli/modem.png,22,47,47,22,3791,4261,1856,right,1131,correct,1,0,1,53,0.736111111111111,1,47,2869,1,32,0.444444444444444,0.966340005397797,0.241141483187675,0.438061326742172,1.49555802345276,0.143195480108261,0.309229671955109,0.0228511579334736,0.0223905462771654,0.0536370910704136,0.0379155017435551,0.662424027919769,0.359990507364273,0.00252253259532154,0.0186205804347992,0.985648155212402,0.0250299982726574,0.00797934923321009,0.0146704623475671,0.777569591999054,0.012218302115798,0.033348735421896,0.066416546702385,0.0302785560488701,1.40406012535095,0.00679827202111483,0.239800229668617,0.0222949329763651,0.0569038949906826
72,72,participant_01,73,stimuli/bologna.png,stimuli/grape.png,3,1,3,1,3794,4264,1857,left,2822,correct,1,1,0,54,0.73972602739726,0,3,2872,1,33,0.452054794520548,0.0103415977209806,2.00457906723022,0.35950580239296,0.105057217180729,0.0465595386922359,0.0681264102458954,0.0248391535133123,0.0205523408949375,0.16529081761837,0.0119714867323637,0.0305548142641783,0.0314137972891331,0.0190605726093054,0.0131641738116741,0.0140143986791372,1.61290407180786,0.407621413469315,0.00227123941294849,0.0262442044913769,0.106822319328785,1.2454035282135,0.0124376798048615,0.0430203005671501,0.0126897944137454,0.0202327501028776,0.00448998203501105,0.0225950349122286,0.315200686454773
73,73,participant_01,74,stimuli/tugboat.png,stimuli/boulder.png,28,11,28,11,3822,4292,1868,left,1025,correct,1,1,0,55,0.743243243243243,1,11,2883,0,33,0.445945945945946,0.548192799091339,0.00658995611593127,0.0256380550563335,0.00321256229653954,0.0124274026602507,0.0158094987273216,0.0421343483030796,1.76688671112061,0.0211457535624504,0.242743611335754,0.0368143282830715,0.00878947507590055,1.63948965072632,0.00479782605543733,0.33259180188179,0.144762650132179,0.457877367734909,0.0158418584614992,0.0387273170053959,0.0385790951550007,0.947493493556976,0.505766332149506,0.706897974014282,0.0248913522809744,1.06526708602905,0.0109093114733696,0.152510657906532,0.00519436411559582
74,74,participant_01,75,stimuli/dumbbell.png,stimuli/staple_gun.png,81,76,81,76,3898,4373,1944,right,1051,incorrect,0,0,1,55,0.733333333333333,1,76,2959,0,33,0.44,1.63456881046295,0.108276687562466,0.0142601365223527,0.489847391843796,0.0059257703833282,0.00674527324736118,0.021414777263999,0.615230679512024,0.713689863681793,0.162401214241982,0.0195051189512014,0.0578554756939411,0.054684229195118,0.000121147168101743,2.00995922088623,0.00434663239866495,0.0436743348836899,0.0698790922760963,0.292343109846115,0.120510123670101,0.030816376209259,0.0440013147890568,0.00972971320152283,0.17727242410183,0.127797693014145,0.00352562172338366,0.0147883668541908,0.00144955480936915
75,75,participant_01,76,stimuli/tack.png,stimuli/kite.png,80,14,80,14,3978,4453,1958,left,1101,correct,1,1,0,56,0.736842105263158,0,80,3039,1,34,0.447368421052632,1.80218160152435,0.0175141673535109,0.00335556059144437,0.0144767183810473,0.18398080766201,0.478688716888428,0.214184105396271,0.0503104031085968,0.536435663700104,0.0104763126000762,0.0153314098715782,0.0116765387356281,0.0337567068636417,0.0075322650372982,0.511543750762939,0.013560576364398,0.147432625293732,0.632501184940338,0.0291011389344931,1.44892370700836,0.547495186328888,0.962965369224548,0.000825868628453463,0.0528202056884766,0.00876553263515234,0.010978220961988,0.560488700866699,0.0253949761390686
76,76,participant_01,77,stimuli/wire_cutters.png,stimuli/paperclip.png,82,74,82,74,4060,4535,2032,left,1404,correct,1,1,0,57,0.74025974025974,0,82,3121,1,35,0.454545454545455,2.07053780555725,0.00641475943848491,0.0141822667792439,0.0391631461679935,0.0138892568647861,0.0357908569276333,0.154677450656891,0.117775484919548,0.0297321546822786,0.00940971728414297,0.022692771628499,0.00807471480220556,0.0104026924818754,0.0435287579894066,1.66018199920654,0.0235581491142511,0.00590916723012924,0.00882765743881464,0.111938923597336,0.362883597612381,0.0139149902388453,0.00327692716382444,0.0113281542435288,0.0095476508140564,0.032583013176918,0.0188240706920624,0.00711122155189514,0.00748595176264644
77,77,participant_01,78,stimuli/petri_dish.png,stimuli/airbag.png,40,34,40,34,4094,4575,2066,right,2191,incorrect,0,0,1,57,0.730769230769231,1,34,3155,0,35,0.448717948717949,0.810440003871918,0.273925304412842,0.000412802444770932,0.0173467602580786,0.164006099104881,0.125688210129738,0.0166154094040394,0.0183047372847796,0.854099631309509,0.560915648937225,0.0821467339992523,0.797106802463532,0.0220036525279284,0.0742700174450874,0.754703760147095,0.00461404677480459,0.0357363186776638,0.538032472133637,0.511762917041779,0.0132387671619654,0.0187306217849255,1.38460338115692,0.0837962850928307,0.30942377448082,0.0125094428658485,0.54084187746048,0.00887899473309517,0.0179575756192207
78,78,participant_01,79,stimuli/map.png,stimuli/gravel.png,9,28,28,9,4122,4603,2075,right,771,correct,1,0,1,58,0.734177215189873,0,9,3164,0,35,0.443037974683544,0.127346068620682,0.0121889552101493,0.433421522378922,0.4902563393116,0.610418736934662,0.666595578193665,0.038268830627203,0.685699462890625,0.184091836214066,0.68047446012497,0.166016206145287,0.0116027388721704,0.297540873289108,0.00559882633388042,0.556115090847015,0.0121708083897829,0.105559349060059,0.00104583241045475,0.496428608894348,0.0151998652145267,1.02132391929626,0.42783734202385,0.0381772145628929,0.00277768238447607,0.403519660234451,0.0181034356355667,0.0087888864800334,0.00402195798233151
79,79,participant_01,80,stimuli/brick.png,stimuli/gauze.png,30,24,30,24,4146,4633,2099,right,1715,incorrect,0,0,1,58,0.725,1,24,3188,0,35,0.4375,0.77254730463028,0.217387437820435,0.00497469399124384,0.00360821350477636,0.646616101264954,0.502219200134277,0.454484462738037,0.19368477165699,0.012298971414566,0.00351648428477347,1.22121298313141,0.0219894964247942,0.0443781167268753,0.0147543326020241,0.720309197902679,0.0939721763134003,0.0259302854537964,0.719154179096222,0.820345461368561,0.561142683029175,0.163053750991821,0.0281752049922943,0.0174178276211023,0.00920426286756992,0.047812182456255,0.782468438148499,0.0607534237205982,0.0435104183852673
80,80,participant_01,81,stimuli/ratchet.png,stimuli/videogame.png,91,26,91,26,4237,4724,2125,left,1951,correct,1,1,0,59,0.728395061728395,0,91,3279,1,36,0.444444444444444,2.24736928939819,0.000692882342264056,0.0021041922736913,0.0123667530715466,0.0251169633120298,0.0512356869876385,0.00163111835718155,0.150795787572861,0.00431053806096315,0.037981141358614,0.0214944127947092,0.0439289696514607,0.0095556890591979,0.00696546770632267,0.600978851318359,0.0177866518497467,0.00038201516144909,0.0909896120429039,0.0739459693431854,0.88832700252533,0.00204322719946504,0.626840114593506,0.0918607264757156,1.68138980865479,0.0149800898507237,0.0262274257838726,0.029914777725935,0.011407139711082
81,81,participant_01,82,stimuli/silverware.png,stimuli/paintbrush.png,69,21,69,21,4306,4793,2146,left,1414,correct,1,1,0,60,0.731707317073171,1,21,3300,0,36,0.439024390243902,1.61216127872467,1.12647354602814,0.0128612862899899,0.040806420147419,0.157894417643547,0.373617649078369,0.0545038878917694,0.00281260977499187,0.121960893273354,0.00170405453536659,0.0123670818284154,0.0346998535096645,0.0280642099678516,0.100000277161598,1.13527464866638,0.278560101985931,0.0427494272589684,0.092013880610466,0.210049673914909,1.76378667354584,0.183410659432411,0.00198671501129866,0.0929391384124756,0.296694487333298,0.679575264453888,0.042570274323225,0.0405813194811344,0.101255357265472
82,82,participant_01,83,stimuli/bracket.png,stimuli/food_processor.png,76,62,76,62,4368,4869,2208,right,1901,incorrect,0,0,1,60,0.72289156626506,1,62,3362,0,36,0.433734939759036,1.64364802837372,0.0169701036065817,0.00974877458065748,0.00446266960352659,1.11137437820435,0.0203785244375467,0.0038343109190464,0.0348698645830154,0.0504804402589798,0.0199516974389553,0.171592026948929,0.00673527037724853,0.0131654292345047,0.00936758797615767,1.3141782283783,1.1789470911026,0.0124000934883952,0.0245666764676571,0.141154900193214,0.0186945702880621,0.0179366916418076,0.114361681044102,0.208411738276482,0.815595269203186,0.00238160905428231,0.810588955879211,0.0119794514030218,0.512815535068512
83,83,participant_01,84,stimuli/goalpost.png,stimuli/tool.png,27,86,86,27,4454,4955,2235,right,1373,correct,1,0,1,61,0.726190476190476,0,27,3389,0,36,0.428571428571429,0.738431453704834,0.00962884072214365,0.0551862232387066,0.0452907904982567,0.187436670064926,0.563980519771576,0.555970549583435,1.0127717256546,0.0277251563966274,0.0234277751296759,0.306742072105408,0.00783191621303558,0.0392880886793137,0.0173699576407671,2.25555372238159,0.00415702117606998,0.0168826319277287,0.0286886021494865,0.0320767089724541,0.415538817644119,0.0104945795610547,0.0447439551353455,0.010897877626121,0.0434813275933266,0.488815009593964,0.00569416536018252,0.0113022876903415,0.00839297473430634
84,84,participant_01,85,stimuli/guillotine.png,stimuli/coat_rack.png,56,61,61,56,4510,5016,2291,left,1225,incorrect,0,1,0,61,0.717647058823529,1,61,3450,1,37,0.435294117647059,1.52048778533936,0.0121378181502223,0.0196341127157211,0.047928012907505,0.277253985404968,0.00971883907914162,0.00919370725750923,0.0226985868066549,0.0745647698640823,0.0366562716662884,0.608884572982788,0.0325086563825607,0.0268369968980551,0.00992927607148886,1.36206722259521,0.0158480890095234,0.0168087929487228,0.392275929450989,1.0892151594162,0.0380046404898167,0.0143480757251382,0.0138136204332113,0.752336859703064,0.0236091278493404,0.0454761423170567,0.0151615692302585,0.010139586403966,0.071831651031971
85,85,participant_01,86,stimuli/jeans.png,stimuli/tape_recorder.png,18,59,59,18,4569,5075,2309,right,573,correct,1,0,1,62,0.720930232558139,0,18,3468,0,37,0.430232558139535,0.295359671115875,0.0146023212000728,0.0677533149719238,2.13572287559509,0.574852705001831,0.0272065289318562,0.0369918122887611,0.207651302218437,0.0147170433774591,0.0579090900719166,0.0110002718865871,0.0238039828836918,0.0216672737151384,0.020087668672204,1.15703999996185,0.00235787709243596,0.00361778028309345,0.106402292847633,0.365098178386688,0.220648750662804,0.0149038461968303,0.0329830907285213,0.256634473800659,1.82609879970551,0.0129876099526882,0.00103616586420685,0.0207284595817327,0.0040871873497963
86,86,participant_01,87,stimuli/gyroscope.png,stimuli/whistle.png,76,66,76,66,4645,5151,2375,left,1947,correct,1,1,0,63,0.724137931034483,1,66,3534,0,37,0.425287356321839,1.54570209980011,0.0440427996218205,0.00240092352032661,0.00301022571511567,0.0445748530328274,0.617689669132233,0.0171781182289124,0.326288372278213,1.20025682449341,0.135701462626457,0.0197313986718655,0.040411252528429,0.0144158685579896,0.0406027585268021,1.4963310956955,0.0770906507968903,0.0506078004837036,0.525148630142212,0.0201246216893196,0.703962445259094,0.0287049319595098,0.153885886073113,0.485877752304077,0.101933397352695,0.0282250214368105,0.0314903445541859,0.0263763163238764,0.0237252879887819
87,87,participant_01,88,stimuli/shaker.png,stimuli/revolving_door.png,70,47,70,47,4715,5221,2422,left,1773,correct,1,1,0,64,0.727272727272727,1,47,3581,0,37,0.420454545454545,1.44764244556427,0.635558128356934,0.0148368319496512,0.0415632650256157,0.3634392619133,0.0343148745596409,0.0126063674688339,0.00539983436465263,0.690817654132843,0.0783729255199432,0.00365127599798143,0.0248897448182106,0.00476062530651689,1.28882455825806,1.05399823188782,0.0336598195135593,0.00267851492390037,0.0247773192822933,0.891337215900421,0.0099484808743,0.0223961733281612,0.629573702812195,0.785419642925262,0.321586579084396,0.0189407411962748,0.0205985940992832,0.0575094670057297,0.0479715652763844
88,88,participant_01,89,stimuli/moccasin.png,stimuli/fire_pit.png,23,52,52,23,4767,5273,2445,right,771,correct,1,0,1,65,0.730337078651685,1,52,3633,1,38,0.426966292134831,0.507363796234131,0.00790507066994906,0.323107689619064,1.2838237285614,0.403217285871506,0.497114032506943,0.17673023045063,0.242415681481361,0.39835113286972,0.00893634464591742,0.85440582036972,0.0331588722765446,0.0218617115169764,0.00930093508213759,1.23680138587952,0.640792489051819,0.141814008355141,0.0181083343923092,0.623337328433991,0.032094232738018,0.421377241611481,0.588909804821014,0.660170316696167,0.255062341690063,0.275665700435638,0.236031830310822,0.291154950857162,0.0369481593370438
89,89,participant_01,90,stimuli/urn.png,stimuli/padlock.png,46,96,96,46,4863,5369,2491,right,1248,correct,1,0,1,66,0.733333333333333,0,46,3679,0,38,0.422222222222222,1.07261788845062,0.177931234240532,0.0258822366595268,0.0458101816475391,0.677366077899933,0.0489457063376904,0.0256682280451059,0.0683982446789742,1.59842729568481,0.234108716249466,0.0607008337974548,0.0466188155114651,0.00850172527134419,0.556909918785095,2.01978826522827,0.00920448824763298,0.00664263358339667,0.0235084369778633,0.358800977468491,0.0116571355611086,0.0262108277529478,0.210009574890137,0.020186223089695,0.0599544420838356,0.00859991926699877,0.0142728071659803,0.0263067074120045,0.0167696569114923
90,90,participant_01,91,stimuli/rubber_band.png,stimuli/hubcap.png,36,79,79,36,4942,5448,2527,right,720,correct,1,0,1,67,0.736263736263736,1,79,3758,1,39,0.428571428571429,0.772562384605408,0.0747740566730499,0.0144675197079778,0.169158563017845,0.239937990903854,0.379698187112808,0.518843948841095,0.00461835321038961,0.637913048267365,0.00833470467478037,0.198169529438019,0.267632335424423,0.064942479133606,0.00207779416814446,1.48292660713196,0.21272200345993,0.00102388672530651,0.0111990524455905,0.0131257772445679,0.00698124524205923,0.0481995530426502,1.02934730052948,1.24416100978851,0.256365954875946,0.014230321161449,0.0429978892207146,0.011712777428329,0.0129783805459738
91,91,participant_01,92,stimuli/kaleidoscope.png,stimuli/home_plate.png,42,23,42,23,4984,5490,2550,left,1725,correct,1,1,0,68,0.739130434782609,0,42,3800,1,40,0.434782608695652,0.765802085399628,0.205166265368462,0.038342297077179,0.200646966695786,0.115805022418499,1.1277916431427,0.0337972156703472,0.433973580598831,1.55039548873901,0.46097132563591,0.027112890034914,0.0060558058321476,0.0260390639305115,0.0477596893906593,0.645278573036194,0.00194637198001146,0.0115905087441206,0.134177312254906,0.499607026576996,0.71544474363327,0.209161043167114,0.770587980747223,0.00879045110195875,0.0711631178855896,0.523887515068054,0.0350920110940933,0.0198376942425966,0.0172182694077492
92,92,participant_01,93,stimuli/railing.png,stimuli/hand.png,85,5,85,5,5069,5575,2555,left,742,correct,1,1,0,69,0.741935483870968,0,85,3885,1,41,0.440860215053763,1.95180475711823,0.0275222603231668,0.0074088959954679,0.0333677716553211,0.301838666200638,0.00438196863979101,0.1759392619133,0.21773487329483,0.0141329756006598,0.00793021358549595,0.197888880968094,0.0507934167981148,0.0137609485536814,0.0307896453887224,0.483581215143204,0.343037754297256,0.644492566585541,1.2489767074585,0.000232012433116324,0.143179401755333,0.00525933131575584,0.0128342872485518,0.0156907867640257,0.0160405039787292,0.26969113945961,0.0232105646282434,0.0255756583064795,0.0043484540656209
93,93,participant_01,94,stimuli/gong.png,stimuli/fire_alarm.png,59,52,59,52,5128,5634,2607,left,1214,correct,1,1,0,70,0.74468085106383,1,52,3937,0,41,0.436170212765957,1.39356052875519,0.221615135669708,0.0276346132159233,0.00581151759251952,0.113009169697762,0.0484956651926041,0.0466369800269604,0.323306441307068,1.73480021953583,0.069511890411377,0.0286478437483311,0.0143668446689844,0.00823036674410105,0.000716510927304626,1.10469532012939,0.0295855030417442,0.00643881130963564,0.0398616977035999,0.405302107334137,0.314230710268021,0.0108753442764282,0.422500967979431,0.0214871112257242,0.975605428218842,0.00644926028326154,0.262929439544678,0.0206047315150499,0.101821891963482
94,94,participant_01,95,stimuli/chisel.png,stimuli/stirrup.png,85,79,85,79,5213,5719,2686,left,1942,correct,1,1,0,71,0.747368421052632,0,85,4022,1,42,0.442105263157895,2.21426153182983,0.0158269070088863,0.00560827041044831,0.0103409793227911,0.00191127276048064,0.0256248898804188,0.0472524128854275,0.0163050312548876,0.00265879067592323,3.46512752003036E-05,0.516193509101868,0.00969401188194752,0.0190509259700775,0.00746127823367715,1.71232569217682,0.0382543429732323,0.179022908210754,0.560067355632782,0.031108807772398,0.00847123190760613,0.0664686039090157,0.456695884466171,0.0605293661355972,0.0160404220223427,0.596268653869629,0.0151306036859751,0.0300232004374266,0.0134577620774508
95,95,participant_01,96,stimuli/duct_tape.png,stimuli/lego.png,38,20,38,20,5251,5757,2706,left,1476,correct,1,1,0,72,0.75,1,20,4042,0,42,0.4375,1.17771506309509,0.00893235672265291,0.0451400279998779,0.684224605560303,0.576550602912903,0.250821590423584,0.014444200322032,0.0187507178634405,0.0145791051909328,0.108594328165054,0.0714071169495583,0.0176273323595524,0.0099251652136445,0.0361267849802971,0.38423952460289,0.331163138151169,0.00594386691227555,0.0116191916167736,0.251802235841751,1.96997320652008,0.0613363645970821,0.223732754588127,0.0299263000488281,0.292821317911148,0.357051253318787,0.0174158923327923,0.00805337447673082,0.00542257679626346
96,96,participant_01,97,stimuli/trowel.png,stimuli/latch.png,61,81,81,61,5332,5838,2767,right,1216,correct,1,0,1,73,0.752577319587629,0,61,4103,0,42,0.43298969072165,1.79738962650299,0.454022407531738,0.0351756811141968,0.00105145398993045,0.0992977619171143,0.00661289179697633,0.311556696891785,0.00189208844676614,0.00460858317092061,0.00284708430990577,0.340212792158127,0.011797240935266,0.000752951891627163,0.0168002173304558,1.92406570911407,0.00192074058577418,0.0262494683265686,0.0266227852553129,0.747453093528748,0.00408342573791742,0.0131849898025393,0.06817277520895,0.0182906929403543,0.11387275904417,0.192731842398644,0.00639380887150764,0.0756849944591522,0.00262302532792091
97,97,participant_01,98,stimuli/helmet.png,stimuli/eyedropper.png,41,54,54,41,5386,5892,2808,right,1231,correct,1,0,1,74,0.755102040816326,0,41,4144,0,42,0.428571428571429,0.831412255764008,0.00257467734627426,0.00144370808266103,0.773874461650848,0.0693474784493446,0.537243902683258,0.0017951064510271,1.16791963577271,0.578299760818481,0.0186072941869497,0.0179277956485748,0.207768559455872,0.0568014085292816,0.00593248521909118,1.65568673610687,0.217558979988098,0.0299026761204004,0.228826224803925,0.031127855181694,0.6242915391922,0.147027686238289,0.0101264594122767,0.0414150133728981,0.0164651162922382,0.117039807140827,0.0267737973481417,0.0351234115660191,0.0331075340509415
98,98,participant_01,99,stimuli/crank.png,stimuli/drain.png,81,51,81,51,5467,5973,2859,left,1135,correct,1,1,0,75,0.757575757575758,0,81,4225,1,43,0.434343434343434,1.7494980096817,0.0947715938091278,0.0317401215434074,0.00733583001419902,0.0855458304286003,0.00541476905345917,0.0188778806477785,0.549407243728638,0.28975036740303,0.0259939916431904,0.293616473674774,0.207921624183655,0.03597491979599,0.00502745900303125,1.04580223560333,0.0378287583589554,0.0656781867146492,0.00317018385976553,0.247536286711693,0.00744318263605237,0.151374414563179,0.36306095123291,0.707876086235046,0.0460484623908997,0.0117865456268191,0.703967154026032,0.324903458356857,0.0139751601964235
99,99,participant_01,100,stimuli/mussel.png,stimuli/mullet.png,7,5,7,5,5472,5980,2864,right,1749,incorrect,0,0,1,75,0.75,1,5,4230,0,43,0.43,0.175225839018822,1.64184641838074,0.792079865932465,0.030650407075882,0.0791221037507057,0.0689277201890945,0.139378398656845,0.0305211879312992,0.112312883138657,0.0275893285870552,0.0514340475201607,0.00909464433789253,0.896280705928803,0.067445270717144,0.0343105979263782,0.0188400577753782,0.677425503730774,1.38940155506134,0.0094099435955286,0.00752969738095999,0.0149551769718528,0.0530253350734711,0.0274601858109236,0.133172377943993,0.00714458199217916,0.0253441277891397,0.0253945030272007,0.0676900669932365
100,100,participant_01,101,stimuli/pedal.png,stimuli/hinge.png,100,89,100,89,5572,6080,2953,left,1196,correct,1,1,0,76,0.752475247524752,1,89,4319,0,43,0.425742574257426,2.12605690956116,0.00353442737832665,0.0105473743751645,0.0393494293093681,0.0407768301665783,0.00750763854011893,0.00307443528436124,0.56064110994339,0.037833034992218,0.0365642867982388,0.0559732392430306,0.00396048370748758,0.0592698268592358,0.0263949204236269,1.71443557739258,0.0313967503607273,0.0122153544798493,0.00372222252190113,0.898768067359924,0.00465823756530881,0.0125729879364371,0.0131362481042743,0.391091227531433,0.0458004027605057,0.324893802404404,0.0228774733841419,0.0122373402118683,0.0426052324473858
101,101,participant_01,102,stimuli/corkboard.png,stimuli/showerhead.png,31,75,75,31,5647,6155,2984,right,703,correct,1,0,1,77,0.754901960784314,1,75,4394,1,44,0.431372549019608,0.662976741790772,0.20591627061367,0.0180002897977829,0.00331431697122753,1.33273863792419,0.484973579645157,0.0538679175078869,0.0224025715142488,0.0306923016905785,0.421170890331268,1.15124523639679,0.0366653837263584,0.0185857843607664,0.0115302465856075,1.63479053974152,0.0149783166125417,0.0353543274104595,0.373746186494827,0.203079909086227,0.00199118093587458,0.0159831922501326,0.0713424682617188,0.057504765689373,0.111442260444164,0.0504822842776775,1.35713970661163,0.553713440895081,0.305956244468689
102,102,participant_01,103,stimuli/roller.png,stimuli/screw.png,61,79,79,61,5708,6234,3045,left,1591,incorrect,0,1,0,77,0.747572815533981,1,79,4473,1,45,0.436893203883495,1.49442160129547,0.15664179623127,0.246775329113007,0.0111901648342609,0.20261937379837,0.0169502422213554,0.896929800510407,0.516568601131439,0.257435470819473,0.0324408635497093,0.461392611265183,0.0246348455548286,0.000988503335975111,0.0501754470169544,2.02073383331299,0.0169617515057325,0.0234706699848175,0.0125546520575881,0.0301739033311605,0.0507624819874764,0.0171330608427525,0.00866662990301847,0.00902065262198448,0.0105474023148417,0.486259400844574,0.0182151272892952,0.0207056514918804,0.014570314437151
103,103,participant_01,104,stimuli/spool.png,stimuli/inkwell.png,63,73,73,63,5781,6307,3108,right,2417,correct,1,0,1,78,0.75,0,63,4536,0,45,0.432692307692308,1.37539291381836,0.0948681235313416,0.0373690277338028,0.0342007130384445,0.218585819005966,0.164996221661568,0.0149697726592422,0.226496502757072,0.816837251186371,0.592073917388916,0.023598974570632,0.271902710199356,0.00389434606768191,0.0277427695691586,1.64872515201569,0.14305691421032,0.00368172791786492,0.029262512922287,0.0119873341172934,0.227847322821617,0.0673706978559494,0.153015106916428,0.960965037345886,0.593304634094238,0.0674760788679123,0.00738658476620913,0.0342638194561005,0.0982202291488647
104,104,participant_01,105,stimuli/ballot_box.png,stimuli/marmalade.png,31,1,31,1,5812,6338,3109,left,1893,correct,1,1,0,79,0.752380952380952,0,31,4567,1,46,0.438095238095238,0.660959362983704,0.00290907314047217,0.0372115597128868,0.41555118560791,0.933229625225067,0.43543204665184,0.0174154471606016,0.0529979057610035,0.0310727618634701,0.702876806259155,0.042022705078125,0.18912835419178,0.0113961771130562,0.055326484143734,0.23435977101326,1.6417088508606,0.14148972928524,0.134280532598495,0.0384986847639084,0.239439889788628,0.333755224943161,0.00743824243545532,0.10243009775877,0.00218510464765131,0.104285664856434,0.31914946436882,0.0164109691977501,1.37228906154633
105,105,participant_01,106,stimuli/wreath.png,stimuli/bin.png,17,39,39,17,5851,6377,3126,right,1232,correct,1,0,1,80,0.754716981132076,0,17,4584,0,46,0.433962264150943,0.356564372777939,0.484842985868454,0.121259413659573,0.300114154815674,0.612560510635376,0.316330194473267,1.56611943244934,0.15057584643364,0.989951550960541,0.0145560996606946,0.0358947515487671,0.00180850375909358,0.0268696490675211,0.0108131244778633,0.931444406509399,0.13211327791214,0.0187386851757765,0.0273316968232393,0.973329305648804,0.889767348766327,0.00159277860075235,0.344701766967773,0.0427861325442791,0.661538422107697,0.0112782623618841,0.0285427439957857,0.0111338132992387,0.0369710139930248
106,106,participant_01,107,stimuli/ski_boots.png,stimuli/clothes.png,41,23,41,23,5892,6418,3149,left,1196,correct,1,1,0,81,0.757009345794392,0,41,4625,1,47,0.439252336448598,0.955544829368591,0.0142518309876323,0.0146787390112877,1.01999795436859,0.0277055911719799,0.775534927845001,0.0123550491407514,1.14408385753632,0.0450501888990402,0.0445464625954628,0.0186377745121717,0.0247741416096687,0.16749781370163,0.0323114469647408,0.487803161144257,0.139102533459663,0.0103632574900985,1.48944878578186,1.03217196464539,0.793104588985443,0.047350075095892,0.114016115665436,0.155167520046234,0.0760838836431503,0.115791745483875,0.0234961975365877,0.00980373471975327,0.0524833276867867
107,107,participant_01,108,stimuli/yacht.png,stimuli/raincoat.png,21,10,21,10,5913,6439,3159,left,1064,correct,1,1,0,82,0.759259259259259,0,21,4646,1,48,0.444444444444444,0.487649112939835,0.0183257609605789,0.0841334909200668,0.0930082499980927,0.280054271221161,0.00237231655046344,0.0365857034921646,1.55362224578857,0.10915345698595,0.343877583742142,0.00686814682558179,0.0654773116111755,1.52894043922424,0.0816776379942894,0.111450344324112,0.0116984406486154,0.510298430919647,1.6719057559967,0.335195630788803,0.325545221567154,0.53649628162384,0.520207405090332,0.054622869938612,0.00384594639763236,0.0644053295254707,0.475188285112381,0.256759256124496,0.0762718096375465
108,108,participant_01,109,stimuli/projector.png,stimuli/organ.png,51,36,51,36,5964,6490,3195,left,2272,correct,1,1,0,83,0.761467889908257,1,36,4682,0,48,0.440366972477064,1.08079874515533,0.00325280148535967,0.00131400488317013,0.00264694029465318,0.416594713926315,0.155516117811203,0.00799062009900808,0.0890110954642296,0.242047503590584,1.82143843173981,0.0134762702509761,0.0813024938106537,0.00687536364421248,0.025167178362608,0.982539832592011,0.00662612449377775,0.000206843105843291,0.0368975885212421,0.634937524795532,0.207119882106781,0.0190543234348297,0.152942031621933,0.667932987213135,0.513241171836853,1.06184601783752,0.00077952811261639,0.00590745685622096,0.0313767157495022
109,109,participant_01,110,stimuli/wine.png,stimuli/key.png,14,82,82,14,6046,6572,3209,right,1250,correct,1,0,1,84,0.763636363636364,0,14,4696,0,48,0.436363636363636,0.469225466251373,1.54215633869171,0.00860433746129274,0.543140172958374,0.215731650590897,0.011565376073122,0.0412178635597229,0.00357556715607643,0.482447177171707,0.0494052469730377,0.023115823045373,0.0096270851790905,0.365803837776184,1.86797189712524,1.81053054332733,0.0123591059818864,0.00412404304370284,0.0594250187277794,0.168970450758934,0.0923017561435699,0.00949955359101296,0.180346935987473,0.394400238990784,0.175420507788658,0.00318242236971855,0.0111854448914528,0.00993994809687138,0.03146942704916
110,110,participant_01,111,stimuli/wedding_cake.png,stimuli/spark_plug.png,18,84,84,18,6130,6656,3227,right,921,correct,1,0,1,85,0.765765765765766,1,84,4780,1,49,0.441441441441441,0.302884757518768,1.52277839183807,0.00299986498430371,0.411490499973297,0.507860898971558,0.108756735920906,0.0532156601548195,0.0222822986543179,0.839370906352997,0.0327579416334629,0.0187193900346756,0.0234331432729959,0.00649331649765372,0.147768661379814,1.80033218860626,0.0216992814093828,0.00534429540857673,0.0413713902235031,0.0129421055316925,0.0349930003285408,0.00144866609480232,0.310886830091476,0.256736397743225,0.25104221701622,0.0110709676519036,0.0621496923267841,0.0116547271609306,0.0710656642913818
111,111,participant_01,112,stimuli/antenna.png,stimuli/walker2.png,60,20,60,20,6190,6716,3247,left,600,correct,1,1,0,86,0.767857142857143,1,20,4800,0,49,0.4375,1.50138521194458,0.000338957615895197,0.00490870838984847,0.0014540737029165,0.0877343341708183,0.00775758223608136,0.409441202878952,0.579049468040466,0.0402681864798069,0.522241950035095,0.0369456708431244,0.0050673489458859,0.148787781596184,0.00726054096594453,0.382209002971649,0.140110671520233,0.00950598251074553,0.390912920236588,0.466747403144836,1.16232740879059,0.00645160349085927,0.828903079032898,0.378251850605011,0.104115158319473,0.00173285626806319,0.372054576873779,0.0321892090141773,0.00316726672463119
112,112,participant_01,113,stimuli/nail_clippers.png,stimuli/denture.png,78,8,78,8,6268,6794,3255,left,924,correct,1,1,0,87,0.769911504424779,1,8,4808,0,49,0.433628318584071,1.89994287490845,0.00873186159878969,0.00450552115216851,0.480987966060638,0.00383127713575959,0.0539469048380852,0.00813827663660049,0.00366038386709988,0.0247613061219454,0.0120952390134335,0.0205290094017982,0.314022958278656,0.000255418330198154,0.00665003852918744,0.134287476539612,0.783548712730408,0.262280374765396,1.01768398284912,0.0076427049934864,0.0457995124161243,0.00746577372774482,0.0173854567110538,0.0114662144333124,0.0144485691562295,0.00319555914029479,0.580445945262909,0.0197392292320728,0.0328525304794312
113,113,participant_01,114,stimuli/makeup.png,stimuli/parking_meter.png,13,74,74,13,6342,6868,3268,right,1131,correct,1,0,1,88,0.771929824561403,1,74,4882,1,50,0.43859649122807,0.394824653863907,0.317200720310211,0.0069527723826468,0.674422562122345,0.243181139230728,1.64995789527893,0.0546215549111366,0.0134562524035573,0.380446523427963,0.208320781588554,0.0146995158866048,0.0105988373979926,0.0623299516737461,0.00555576104670763,1.49528324604034,0.0544811598956585,0.00538696255534887,0.052583921700716,0.087090827524662,0.0193661618977785,0.0142066236585379,0.730872392654419,0.526228904724121,0.946149468421936,0.0226488076150417,0.0440182499587536,0.0241993181407452,0.0287735760211945
114,114,participant_01,115,stimuli/bear.png,stimuli/pocketknife.png,0,69,69,0,6411,6937,3268,right,833,correct,1,0,1,89,0.773913043478261,0,0,4882,0,50,0.434782608695652,0.0205758772790432,0.000611040100920945,2.26236271858215,0.0325899384915829,0.0154048325493932,0.0122907543554902,0.227916523814201,0.0319650359451771,0.0120590655133128,0.0125386193394661,0.115650102496147,0.00941125769168139,0.021034512668848,0.000182996154762805,2.04683256149292,0.170181199908257,0.0137760732322931,0.228835329413414,0.0480105876922607,0.301022350788116,0.0409851558506489,0.015044410713017,0.0701021999120712,0.0594998560845852,0.451186507940292,0.0139873130246997,0.0284494869410992,0.0105492463335395
115,115,participant_01,116,stimuli/nail_file.png,stimuli/suit.png,53,20,53,20,6464,6990,3288,left,650,correct,1,1,0,90,0.775862068965517,0,53,4935,1,51,0.439655172413793,1.53844892978668,0.0313112773001194,0.00390197709202766,0.462823867797852,0.0996919497847557,0.572262763977051,0.185953810811043,0.0117724509909749,0.0189601704478264,0.039277121424675,0.0455499961972237,0.400139302015305,0.0113213490694761,0.0201178714632988,0.319564670324326,0.0104726050049067,0.284821838140488,2.06466197967529,0.277161806821823,0.0128048276528716,0.000813560909591615,0.00464328611269593,0.0825892090797424,0.192305132746696,0.005717100109905,0.0109836682677269,0.00298946513794363,0.0664085522294045
116,116,participant_01,117,stimuli/hammer.png,stimuli/fur_coat.png,88,6,88,6,6552,7078,3294,left,700,correct,1,1,0,91,0.777777777777778,1,6,4941,0,51,0.435897435897436,2.20659446716309,0.0050529963336885,0.0162446759641171,0.0987926200032234,0.0397491753101349,0.00859051570296288,0.054625041782856,0.0446650683879852,0.0114844916388392,0.0187954269349575,0.170076802372932,0.00556251872330904,0.0108922692015767,0.00694859866052866,0.0753249153494835,0.0952940136194229,0.86268550157547,1.71257841587067,0.838211417198181,0.171143352985382,0.00468817725777626,0.0287400390952826,0.360077738761902,0.0147862983867526,0.0757495015859604,0.0359885469079018,0.0247363299131393,0.0144144622609019
117,117,participant_01,118,stimuli/treasure.png,stimuli/playpen.png,35,9,35,9,6587,7113,3303,left,1299,correct,1,1,0,92,0.779661016949153,0,35,4976,1,52,0.440677966101695,0.737014532089233,0.175606295466423,0.0550276599824429,0.25123992562294,0.499783575534821,0.846813559532166,0.182221263647079,0.084832988679409,0.931124866008759,0.10670068114996,0.533105432987213,0.0162102431058884,0.60755866765976,0.0106228170916438,0.169591516256332,0.101115345954895,0.544484794139862,0.657233715057373,1.017951130867,0.888523042201996,0.0368845015764236,0.354056119918823,0.00789642240852118,0.00910788122564554,0.179992780089378,0.0432130210101604,0.0173801016062498,0.0271664168685675
118,118,participant_01,119,stimuli/rake.png,stimuli/brake.png,48,88,88,48,6675,7201,3351,right,1266,correct,1,0,1,93,0.781512605042017,1,88,5064,1,53,0.445378151260504,1.44746065139771,0.0906995832920074,0.0262402277439833,0.106411285698414,0.0108554698526859,0.457374900579453,1.03822839260101,0.380300045013428,0.00896002911031246,0.00336275831796229,0.237583070993423,0.0236300453543663,0.0231161918491125,0.0108029851689935,1.84596192836761,0.00326153030619025,0.0125372968614101,0.037080243229866,0.0406479351222515,0.00871945451945066,0.0131039759144187,0.386186867952347,0.244952142238617,0.0506579391658306,0.364142388105392,0.00559715973213315,0.0163129027932882,0.00959062203764915
119,119,participant_01,120,stimuli/mousse.png,stimuli/doghouse.png,8,35,35,8,6683,7236,3359,left,2843,incorrect,0,1,0,93,0.775,1,35,5099,1,54,0.45,0.0525864511728287,2.1680908203125,0.0111794900149107,0.250014990568161,0.0412082672119141,0.0330238044261932,0.0233996156603098,0.0305625516921282,0.364886611700058,0.00557181285694242,0.0754398107528687,0.374655187129974,0.0142439547926188,0.0558875426650047,0.840268671512604,0.0230225082486868,0.764344036579132,0.0119447326287627,1.20713806152344,0.017157169058919,0.571564614772797,0.728633522987366,0.216873809695244,0.00375044392421842,0.827695727348328,0.0195100046694279,0.0136957466602325,0.0142123932018876
120,120,participant_01,121,stimuli/machete.png,stimuli/roll.png,46,1,46,1,6729,7282,3360,left,1004,correct,1,1,0,94,0.776859504132231,0,46,5145,1,55,0.454545454545455,1.48907208442688,0.0999204963445663,0.475557506084442,0.267725497484207,0.00947443209588528,0.022449990734458,1.11305058002472,0.0440126359462738,0.0149163752794266,0.0106207486242056,0.0861960053443909,0.0168054886162281,0.0367477871477604,0.00728098396211863,0.00645391037687659,2.13052558898926,0.0977195054292679,0.0140392621979117,0.00885245576500893,0.00460265949368477,0.0206410828977823,0.0118823135271668,0.250218868255615,0.00830836873501539,0.0218679625540972,0.0308192409574985,0.0083394069224596,0.00654367916285992
121,121,participant_01,122,stimuli/altar.png,stimuli/bamboo.png,25,2,25,2,6754,7307,3362,left,1600,correct,1,1,0,95,0.778688524590164,1,2,5147,0,55,0.450819672131148,0.74822598695755,0.0909551680088043,0.0303438622504473,0.0799071490764618,1.23788464069366,0.28413337469101,0.0797402411699295,0.0870771259069443,0.576444149017334,0.144311606884003,0.618532836437225,0.00829834677278996,0.00487462244927883,0.140775993466377,0.31869626045227,0.592801332473755,0.402709394693375,0.102706745266914,0.248883992433548,0.0996228754520416,1.36603093147278,0.0322935879230499,0.0413084477186203,0.0112469820305705,1.37117791175842,0.00989403761923313,0.0177802629768848,0.00583598343655467
122,122,participant_01,123,stimuli/cigar.png,stimuli/towel.png,13,14,14,13,6767,7321,3375,left,1474,incorrect,0,1,0,95,0.772357723577236,0,13,5160,0,55,0.447154471544715,0.653680801391602,0.340097427368164,0.0142747759819031,0.408829033374786,0.0218416005373001,0.154546529054642,0.154708817601204,0.00347769143991172,0.00491788983345032,0.0231643170118332,0.724128246307373,0.0461008958518505,0.00461639510467649,0.504064917564392,0.427292853593826,0.354766458272934,0.0111508434638381,1.05133175849915,1.28605794906616,0.861189365386963,0.18551330268383,0.0466468222439289,0.0447503253817558,0.00982548110187054,0.00809978414326906,0.470132112503052,0.00298090605065227,0.0178269799798727
123,123,participant_01,124,stimuli/tractor.png,stimuli/bell.png,47,70,70,47,6837,7391,3422,right,1067,correct,1,0,1,96,0.774193548387097,1,70,5230,1,56,0.451612903225806,0.891055524349213,0.156792163848877,0.152130603790283,0.0289594195783138,0.00628399895504117,0.00440190499648452,0.848260521888733,1.56993365287781,0.00302188075147569,0.274554401636124,0.0733112245798111,0.0120570939034224,0.00690160878002644,0.00615988811478019,1.55510568618774,0.0117824310436845,0.0784394443035126,0.0202213488519192,0.0879605114459991,0.127034574747086,0.0494322329759598,0.255991220474243,1.14751410484314,0.100838020443916,0.300987601280212,0.0134079689159989,0.00379954790696502,0.0161101557314396
124,124,participant_01,125,stimuli/periscope.png,stimuli/blouse.png,57,6,57,6,6894,7448,3428,left,1092,correct,1,1,0,97,0.776,0,57,5287,1,57,0.456,1.24601793289185,0.000392481801100075,0.545038759708405,0.69881671667099,0.000937260803766549,0.0221838057041168,0.0354642942547798,0.919812977313995,0.0785157084465027,0.726470947265625,0.01304741948843,0.0115074357017875,0.510184168815613,0.107422612607479,0.0290902946144342,0.0141879543662071,0.300419956445694,2.20703434944153,0.469406545162201,0.316204935312271,0.0715663656592369,0.0240403730422258,0.0919717252254486,0.0152046848088503,0.00593319581821561,0.0293590556830168,0.00559685472398996,0.0288187712430954
125,125,participant_01,126,stimuli/doorknocker.png,stimuli/toaster.png,83,68,83,68,6962,7531,3496,right,1107,incorrect,0,0,1,97,0.76984126984127,1,68,5355,0,57,0.452380952380952,1.68295586109161,0.0617818757891655,0.0538424402475357,0.0563071072101593,0.461635053157806,0.0173300076276064,0.223366588354111,0.0278136320412159,0.782960891723633,0.0740103870630264,0.023383405059576,0.0498040020465851,0.00400982052087784,0.0279103927314281,1.32935380935669,1.02464330196381,0.0179845802485943,0.00590505823493004,0.384086459875107,0.015978941693902,0.0198786947876215,0.137616172432899,0.00143069459591061,1.16111421585083,0.0130986869335175,0.041343379765749,0.015078242868185,0.0482876151800156
126,126,participant_01,127,stimuli/pet_food.png,stimuli/defibrillator.png,12,58,58,12,6974,7589,3508,left,2037,incorrect,0,1,0,97,0.763779527559055,0,12,5367,0,57,0.448818897637795,0.185255289077759,1.54274165630341,0.446289092302322,0.0040553193539381,0.0506369955837727,0.0860102325677872,0.00301633239723742,0.028793403878808,0.472217530012131,0.0220021177083254,0.0528437532484531,0.363393694162369,0.0217611212283373,0.0331052765250206,1.1529620885849,0.0504221506416798,0.00660002510994673,0.210484161973,0.466622084379196,0.0603402778506279,0.0123535627499223,0.117187708616257,0.0243472475558519,1.54242348670959,0.0133253028616309,0.571510076522827,0.0406496785581112,0.0120333386585116
127,127,participant_01,128,stimuli/ramp.png,stimuli/mud.png,45,14,45,14,7019,7634,3522,left,681,correct,1,1,0,98,0.765625,1,14,5381,0,57,0.4453125,1.06075382232666,0.000834528298582882,0.0129838082939386,0.0479990132153034,0.880131363868713,0.00377257424406707,0.209957614541054,0.913673400878906,0.0199071932584047,0.0385275110602379,0.0694321915507317,0.0777271389961243,0.0339010991156101,0.00671682972460985,0.184229239821434,0.262378185987473,0.316746145486832,0.0164162572473288,0.27191698551178,0.0200736634433269,0.702505946159363,0.262448668479919,0.0109480526298285,0.00620870385318995,0.779255867004395,0.256235510110855,0.650095164775848,0.0134279876947403
128,128,participant_01,129,stimuli/trombone.png,stimuli/harp.png,67,48,67,48,7086,7701,3570,left,1214,correct,1,1,0,99,0.767441860465116,1,48,5429,0,57,0.441860465116279,1.64197325706482,0.0349654965102673,0.0521634854376316,0.221175909042358,0.0491851679980755,0.195729225873947,0.001570830703713,0.199764028191566,0.69951057434082,0.00498907873407006,0.0817389860749245,0.00628885440528393,0.0376848131418228,0.0255578178912401,1.20442163944244,0.0170870386064053,0.00205353694036603,0.190756604075432,0.568915843963623,0.189133167266846,0.00719092600047588,0.139282330870628,0.818885862827301,0.0512434989213944,0.880537629127502,4.75002852908801E-05,0.00724030751734972,0.0213843770325184
129,129,participant_01,130,stimuli/pencil_sharpener.png,stimuli/button2.png,75,74,75,74,7160,7776,3644,right,1118,incorrect,0,0,1,99,0.761538461538461,1,74,5503,0,57,0.438461538461538,1.87122476100922,0.0722341388463974,0.00578089524060488,0.0375094264745712,0.131843656301498,0.40815207362175,0.0119660748168826,0.023314643651247,0.0544380582869053,0.349118918180466,0.0638628378510475,0.0803351476788521,0.0159527882933617,0.0234281048178673,1.34705722332001,0.0423462018370628,0.0116281025111675,0.0453932732343674,0.331643730401993,0.106136709451675,0.00846625678241253,0.0362278334796429,1.08912968635559,0.674734950065613,0.0399681888520718,0.231231868267059,0.0237166248261929,0.00890018884092569
130,130,participant_01,131,stimuli/gramophone.png,stimuli/kayak.png,61,27,61,27,7221,7837,3671,left,1197,correct,1,1,0,100,0.763358778625954,0,61,5564,1,58,0.442748091603053,1.26712656021118,0.0493839643895626,0.0545047111809254,0.102590672671795,0.108543440699577,0.0637578219175339,0.0151115534827113,0.29078134894371,1.46163249015808,0.833679795265198,0.226819708943367,0.0350063852965832,0.00960282981395721,0.0815424025058746,0.678098797798157,0.0379436016082764,0.570110082626343,0.223937079310417,0.0244370587170124,0.394014954566956,0.538735508918762,1.61020362377167,0.015912763774395,0.0494128614664078,0.209809675812721,0.0136406999081373,1.6110942363739,0.0073880604468286
131,131,participant_01,132,stimuli/freezer.png,stimuli/wing.png,48,53,53,48,7274,7890,3719,right,2000,correct,1,0,1,101,0.765151515151515,1,53,5617,1,59,0.446969696969697,0.883087515830994,0.481377631425858,0.0112444302067161,0.0179681312292814,1.06689774990082,0.00220970064401627,0.0277720671147108,0.312638014554977,0.0222383625805378,0.893424451351166,0.000194079417269677,0.479183167219162,0.0348281562328339,0.0193329397588968,1.0186505317688,0.00840677507221699,0.141412258148193,0.019014235585928,0.1492088586092,0.0270268321037292,0.00557766854763031,1.48736774921417,0.0231883302330971,0.584670007228851,0.0209956113249063,0.0141297047957778,0.366023004055023,0.0164719969034195
132,132,participant_01,133,stimuli/vise.png,stimuli/waffle_iron.png,100,68,100,68,7342,7990,3787,right,2247,incorrect,0,0,1,101,0.759398496240602,1,68,5685,0,59,0.443609022556391,2.08184432983398,0.0110713066533208,0.0501676872372627,0.010471043176949,0.0643324628472328,0.00852676201611757,0.0187389589846134,0.405773103237152,0.0144815621897578,0.153214663267136,0.0507726967334747,0.0141542898491025,0.0399656370282173,0.00212217820808291,1.29287219047546,1.1325398683548,0.000256599014392123,0.00820297934114933,0.563498198986053,0.0212398767471313,0.0147886713966727,0.109600640833378,0.0196363441646099,0.887109279632568,0.010783314704895,0.0154613088816404,0.00852568726986647,0.00935607869178057
133,133,participant_01,134,stimuli/cot.png,stimuli/counter.png,27,37,37,27,7379,8027,3814,right,1037,correct,1,0,1,102,0.761194029850746,1,37,5722,1,60,0.447761194029851,0.843594789505005,0.0874720960855484,0.241711527109146,0.527228713035584,0.879925727844238,0.250082165002823,0.532419919967651,0.935197114944458,0.00373825593851507,0.00161658262368292,0.176902264356613,0.154231339693069,0.173552736639977,0.0137842502444983,0.748295664787293,1.18151330947876,0.0257069058716297,0.0290948320180178,1.32092416286469,0.0279016476124525,0.0215503983199596,0.0833482518792152,0.0402040183544159,0.354597091674805,0.072782039642334,0.0094087403267622,0.000689382432028651,0.163895279169083
134,134,participant_01,135,stimuli/can_opener.png,stimuli/webcam.png,97,59,97,59,7476,8124,3873,left,1855,correct,1,1,0,103,0.762962962962963,0,97,5819,1,61,0.451851851851852,2.08157968521118,0.63662725687027,0.0239585507661104,0.0314927473664284,0.0138830067589879,0.0351816527545452,0.0102928346022964,0.0672950744628906,0.0599136054515839,0.0316642932593822,0.0137590393424034,0.0362799428403378,0.0113432351499796,0.0320221781730652,1.05216181278229,0.0104707861319184,0.0209595318883657,0.181000918149948,0.0861831679940224,0.0180070251226425,0.011788678355515,0.259910941123962,0.481875002384186,1.56191563606262,0.0058197733014822,0.0270137954503298,0.0231855250895023,0.0383930094540119
135,135,participant_01,136,stimuli/magnifier.png,stimuli/soldering_iron.png,72,67,72,67,7543,8196,3940,right,1999,incorrect,0,0,1,103,0.757352941176471,0,72,5891,1,62,0.455882352941176,1.38069117069244,0.0183621160686016,0.00541574507951736,0.00436778180301189,0.222622618079185,0.00464481068775058,0.00827972125262022,0.279148459434509,0.490586966276169,1.19492018222809,0.000524781062267721,0.13898853957653,0.0609267726540566,0.0593221113085747,1.8514289855957,0.0229666549712419,0.0101811178028584,0.0371518507599831,0.0138395680114627,0.686915397644043,0.107797868549824,0.286295562982559,0.0152993695810437,0.294845670461655,0.0200591273605824,0.0473017878830433,0.0169621258974075,0.0198572967201471
136,136,participant_01,137,stimuli/slide.png,stimuli/crystal_ball.png,33,23,33,23,7566,8229,3963,right,965,incorrect,0,0,1,103,0.751824817518248,0,33,5924,1,63,0.45985401459854,0.85580587387085,0.011526295915246,0.146756961941719,0.0531357862055302,0.435266673564911,0.601703464984894,0.933774769306183,1.00300323963165,0.0481239594519138,0.0133392792195082,0.15256279706955,0.0328119024634361,0.0563685707747936,0.0141941597685218,0.227904975414276,0.376670807600021,0.0100668501108885,0.0115898884832859,0.29994860291481,0.895574867725372,0.867845296859741,0.00866861827671528,0.297695577144623,0.018513236194849,0.0273264274001122,0.236715823411942,0.34742859005928,0.0212851073592901
137,137,participant_01,138,stimuli/bolt.png,stimuli/fishbowl.png,88,5,88,5,7654,8317,3968,left,823,correct,1,1,0,104,0.753623188405797,1,5,5929,0,63,0.456521739130435,1.94403731822968,0.0259735696017742,0.00546223949640989,0.00277484999969602,0.0540642105042934,0.0551955252885819,0.322990387678146,0.320825219154358,0.0201958175748587,0.0580893941223621,0.0187964290380478,0.0117230396717787,0.0426753051578999,0.024748932570219,0.0262728333473206,0.359078079462051,1.33348441123962,0.0376347824931145,0.0417733453214169,0.483005076646805,0.2338947057724,0.170693606138229,0.468475878238678,0.0633730888366699,0.0230123680084944,0.635315537452698,1.37477588653564,0.118708185851574
138,138,participant_01,139,stimuli/brass_knuckles.png,stimuli/weed.png,69,12,69,12,7723,8386,3980,left,867,correct,1,1,0,105,0.755395683453237,1,12,5941,0,63,0.453237410071942,1.72210431098938,0.0181795470416546,0.11407708376646,0.999874591827393,0.00689247809350491,0.00762193277478218,0.00950995460152626,0.132084891200066,0.0709989070892334,0.000964790058787912,0.0346119590103626,0.00866435188800097,0.027162741869688,0.0129475686699152,0.178370639681816,0.64003050327301,0.323374658823013,0.00784956384450197,0.0357658006250858,0.000318035978125408,2.25791382789612,0.17412181198597,0.0361860059201717,0.0159344486892223,0.0612302236258984,0.00635605771094561,0.0976116135716438,0.0476380027830601
139,139,participant_01,140,stimuli/mold1.png,stimuli/barbed_wire.png,65,51,65,51,7774,8451,4031,right,2170,incorrect,0,0,1,105,0.75,1,51,5992,0,63,0.45,1.22069895267487,1.12453079223633,0.0206012390553951,0.0482767857611179,0.481149524450302,0.144241496920586,0.00660011265426874,0.0478498563170433,0.796160101890564,0.259241253137588,0.0192199256271124,0.0145606864243746,0.0198882780969143,0.0439070798456669,1.18789124488831,0.00711234286427498,0.413849830627441,0.01642812974751,0.0574806183576584,0.0044028265401721,1.0759881734848,0.375145554542541,0.00888171512633562,0.00362962111830711,0.2672199010849,0.00699084112420678,0.00916743837296963,0.0152169829234481
140,140,participant_01,141,stimuli/whisk.png,stimuli/wagon.png,76,45,76,45,7850,8527,4076,left,1007,correct,1,1,0,106,0.75177304964539,0,76,6068,1,64,0.453900709219858,1.79231035709381,1.28415012359619,0.00442032003775239,0.0343394540250301,0.0899418815970421,0.122207686305046,0.00717191724106669,0.0143865207210183,0.0328047424554825,0.0560113973915577,0.036438774317503,0.0730353072285652,0.0128200482577086,0.00888405367732048,0.911544024944305,0.122147038578987,0.359655737876892,0.00715765031054616,0.260215044021606,0.00743869924917817,0.587840855121613,1.61190950870514,0.155440434813499,0.0281017944216728,1.12167465686798,0.00976151134818792,0.0421874076128006,0.00823414139449596
141,141,participant_01,142,stimuli/lens.png,stimuli/banjo.png,53,45,53,45,7903,8580,4121,left,2186,correct,1,1,0,107,0.753521126760563,1,45,6113,0,64,0.450704225352113,1.22329366207123,0.129652187228203,0.0405664443969727,0.187486231327057,0.0165325459092855,0.193812593817711,0.0523572266101837,0.00447482708841562,0.82484370470047,0.64263528585434,0.0119380010291934,1.03081333637238,0.0339668318629265,0.0899576470255852,1.35256505012512,0.0209461357444525,0.00278416206128895,0.235300540924072,0.025911433622241,0.513035833835602,0.0205176286399364,0.282471925020218,1.06534087657928,0.170600891113281,0.0229501817375422,0.000935583026148379,0.025569474324584,0.00944751128554344
142,142,participant_01,143,stimuli/puppet.png,stimuli/flashlight.png,13,72,72,13,7975,8652,4134,right,632,correct,1,0,1,108,0.755244755244755,0,13,6126,0,64,0.447552447552448,0.213748097419739,0.00602665217593312,0.46914729475975,1.09824049472809,0.305617123842239,0.782241582870483,0.00535121513530612,0.0335791520774364,0.243498370051384,0.0165505614131689,0.124564528465271,0.00529906805604696,0.0232944469898939,0.0103652020916343,1.72318422794342,0.0105253234505653,0.00243436545133591,0.256453394889832,0.011457952670753,0.0120312254875898,0.00423617660999298,0.328381180763245,0.132094040513039,0.78780722618103,0.00689381174743176,0.114606305956841,0.0130600510165095,0.0318631157279015
143,143,participant_01,144,stimuli/mat.png,stimuli/safety_pin.png,17,81,81,17,8056,8733,4151,right,823,correct,1,0,1,109,0.756944444444444,1,81,6207,1,65,0.451388888888889,0.536077976226807,0.203709930181503,0.0187201108783484,0.3417047560215,1.50611853599548,0.146153002977371,0.272792160511017,0.00590666895732284,0.161788910627365,0.033886231482029,0.787032663822174,0.00565382046625018,0.0144674060866237,0.0242240931838751,1.8494998216629,0.134732842445374,0.0084394970908761,0.352823317050934,0.128535613417625,0.559001743793488,0.0607662312686443,0.00692801317200065,0.338516265153885,0.00293527520261705,0.398408710956573,0.00451798876747489,0.0102247837930918,0.00631041591987014
